"Time (s)","Gyroscope x (rad/s)","Gyroscope y (rad/s)","Gyroscope z (rad/s)","Absolute (rad/s)"
0.000000000E0,-2.420359477E-2,-3.332336619E-2,3.697399981E-3,4.135131801E-2
9.967999998E-3,-2.534753643E-2,-2.389889397E-2,3.797453828E-3,3.504390662E-2
1.993600000E-2,-1.515508723E-2,-6.915383041E-3,2.479988150E-3,1.684189813E-2
2.990299999E-2,-2.708231332E-3,1.047441736E-3,2.133245580E-3,3.603108081E-3
3.987099999E-2,9.709290229E-3,7.413994987E-3,2.350825816E-3,1.244041882E-2
4.983900001E-2,1.179842278E-2,1.499191765E-2,2.171223052E-3,1.920090062E-2
5.980700001E-2,4.949038848E-3,9.434966370E-3,1.464952715E-3,1.075442525E-2
6.977500001E-2,-8.136669174E-3,-2.893073019E-3,2.900130115E-3,9.109665824E-3
7.974300001E-2,-1.463025529E-2,-1.450312324E-2,4.941442981E-3,2.118496666E-2
8.971100001E-2,-9.839027189E-3,-7.324086502E-3,2.627458423E-3,1.254401199E-2
9.967900001E-2,9.656837210E-4,4.112591967E-3,3.542253748E-3,5.513031775E-3
1.096470000E-1,4.851585254E-3,1.236763131E-2,2.892228775E-3,1.359636609E-2
1.196150000E-1,8.632209152E-3,1.162567455E-2,1.676762477E-3,1.457679238E-2
1.295830000E-1,-4.993278533E-3,-4.022029229E-3,5.047162063E-3,8.159864859E-3
1.395510000E-1,-1.375561021E-2,1.006551553E-3,1.081476919E-2,1.752681349E-2
1.495190000E-1,3.530149115E-3,-5.408808589E-3,9.978572838E-3,1.188650828E-2
1.594870000E-1,-7.952336222E-3,3.948474303E-3,8.250447921E-3,1.212023067E-2
1.694550000E-1,8.375260513E-4,1.264699921E-2,1.652809978E-2,2.082849301E-2
1.794230000E-1,2.641772106E-2,-1.433641464E-2,2.103976160E-2,3.668924010E-2
1.893910000E-1,8.124628104E-3,6.510878913E-3,3.282612190E-2,3.443770325E-2
1.993590000E-1,1.721266657E-2,1.343003754E-2,3.886244446E-2,4.457500856E-2
2.093270000E-1,-3.785243491E-3,-2.933095396E-2,5.768181384E-2,6.482148236E-2
2.192950000E-1,-8.381326683E-3,-1.568198577E-2,7.245836407E-2,7.460821562E-2
2.292630000E-1,5.829921924E-3,1.622908749E-3,8.849582076E-2,8.870249216E-2
2.392310000E-1,4.893820733E-3,-1.574216411E-3,9.883261472E-2,9.896622338E-2
2.491990000E-1,8.756611496E-3,1.234310493E-2,1.149951443E-1,1.159866962E-1
2.591670000E-1,-4.505664110E-3,1.350642182E-3,1.259902716E-1,1.260780464E-1
2.691350000E-1,-1.677791774E-2,-1.471025869E-2,1.395907104E-1,1.413628546E-1
2.791030000E-1,-1.180606335E-2,-1.018421538E-2,1.522846669E-1,1.530807667E-1
2.890710000E-1,3.312815679E-4,-2.445502207E-2,1.642954350E-1,1.661058331E-1
2.990390000E-1,1.541569177E-2,-6.291730795E-3,1.750716269E-1,1.758616046E-1
3.090070000E-1,2.052543499E-2,6.147935987E-3,1.881150007E-1,1.893313078E-1
3.189750000E-1,1.093699038E-2,-1.648254134E-2,1.994100064E-1,2.003887287E-1
3.289430000E-1,4.874963313E-3,-2.215320617E-2,2.118466645E-1,2.130575957E-1
3.389110000E-1,-8.503004210E-4,-3.074562736E-2,2.227512449E-1,2.248647009E-1
3.488790000E-1,-1.586778322E-3,-3.553782031E-2,2.391708493E-1,2.418018811E-1
3.588470000E-1,6.357697770E-3,-1.940252632E-2,2.552270591E-1,2.560424380E-1
3.688150000E-1,3.474902362E-3,-2.090406790E-2,2.719523013E-1,2.727766654E-1
3.787830000E-1,1.963558374E-3,-2.432436496E-2,2.944706678E-1,2.954801254E-1
3.887500000E-1,3.808814799E-3,-1.769013330E-2,3.141805828E-1,3.147012654E-1
3.987180000E-1,9.906654246E-3,-2.345880680E-2,3.319044411E-1,3.328798814E-1
4.086860000E-1,2.013050206E-2,-8.876116946E-3,3.453934491E-1,3.460934227E-1
4.186540000E-1,1.963222399E-2,-4.292017780E-3,3.645037413E-1,3.650572873E-1
4.286220000E-1,1.365341526E-2,-1.967753470E-2,3.790346384E-1,3.797905715E-1
4.385900000E-1,1.104298420E-2,-2.360916138E-2,3.925080895E-1,3.933725211E-1
4.485580000E-1,1.835878822E-3,-3.324863315E-2,4.028989971E-1,4.042727345E-1
4.585260000E-1,-6.006471813E-4,-4.070335254E-2,4.158611298E-1,4.178487800E-1
4.684940000E-1,1.255474985E-3,-4.091554135E-2,4.262051582E-1,4.281664333E-1
4.784620000E-1,1.502616331E-3,-4.179784656E-2,4.380708635E-1,4.400629492E-1
4.884300000E-1,8.121863939E-3,-3.837681189E-2,4.507914186E-1,4.524949142E-1
4.983980000E-1,1.204762980E-2,-3.587424010E-2,4.639484882E-1,4.654893191E-1
5.083660000E-1,1.215429604E-2,-3.304516524E-2,4.715331793E-1,4.728459041E-1
5.183340000E-1,1.649844646E-2,-2.944483981E-2,4.846862853E-1,4.858600544E-1
5.283020000E-1,1.535287872E-2,-2.599950507E-2,4.924802780E-1,4.934050156E-1
5.382700000E-1,1.512358058E-2,-2.569084242E-2,5.031408668E-1,5.040232870E-1
5.482380000E-1,1.385963522E-2,-2.660287917E-2,5.111174583E-1,5.119969325E-1
5.582060000E-1,1.234509517E-2,-3.078483976E-2,5.237943530E-1,5.248434357E-1
5.681740000E-1,1.339213364E-2,-2.952420153E-2,5.285651088E-1,5.295584028E-1
5.781420000E-1,9.634147398E-3,-3.250560910E-2,5.357193947E-1,5.367911151E-1
5.881100000E-1,7.244085893E-3,-4.282988235E-2,5.440899134E-1,5.458211332E-1
5.980780000E-1,9.203906171E-3,-3.975046799E-2,5.502897501E-1,5.518003449E-1
6.080460000E-1,9.035403840E-3,-4.028634727E-2,5.586543083E-1,5.601778865E-1
6.180140000E-1,7.520598359E-3,-4.676155746E-2,5.637654066E-1,5.657513909E-1
6.279820000E-1,6.401475403E-4,-5.334743485E-2,5.752707720E-1,5.777394047E-1
6.379500000E-1,7.332671434E-3,-5.326248333E-2,5.872717500E-1,5.897277071E-1
6.479180000E-1,1.539119054E-2,-3.831437975E-2,5.909948349E-1,5.924354609E-1
6.578860000E-1,1.446760632E-2,-3.724485263E-2,6.008767486E-1,6.022037509E-1
6.678540000E-1,1.585989445E-2,-4.117957875E-2,6.083172560E-1,6.099157137E-1
6.778220000E-1,1.571501791E-2,-3.770708293E-2,6.123844385E-1,6.137454574E-1
6.877900000E-1,1.947562024E-2,-3.723797575E-2,6.211141348E-1,6.225341236E-1
6.977580000E-1,1.325500850E-2,-3.635913134E-2,6.239796877E-1,6.251786403E-1
7.077260000E-1,9.687550366E-3,-4.425397143E-2,6.316323876E-1,6.332548742E-1
7.176940000E-1,1.119995955E-2,-4.992570728E-2,6.374465823E-1,6.394968027E-1
7.276620000E-1,1.606422290E-2,-4.804924503E-2,6.450440288E-1,6.470305930E-1
7.376300000E-1,1.709513366E-2,-4.492375627E-2,6.536034346E-1,6.553684743E-1
7.475970000E-1,1.700280979E-2,-4.287797585E-2,6.607992649E-1,6.624071896E-1
7.575650000E-1,1.282990165E-2,-4.210486263E-2,6.678729057E-1,6.693217791E-1
7.675330000E-1,1.108967885E-2,-5.277784541E-2,6.803438067E-1,6.824779684E-1
7.775010000E-1,1.727753319E-2,-4.743501171E-2,6.879561543E-1,6.898059610E-1
7.874690000E-1,2.202863991E-2,-4.368858412E-2,6.938017607E-1,6.955248640E-1
7.974370000E-1,2.288191393E-2,-4.257405177E-2,7.053129673E-1,7.069671235E-1
8.074050000E-1,2.279110253E-2,-4.039718211E-2,7.136753201E-1,7.151809766E-1
8.173730000E-1,1.584477723E-2,-4.882475734E-2,7.190615535E-1,7.208914146E-1
8.273410000E-1,1.243404299E-2,-5.518135056E-2,7.301228046E-1,7.323106559E-1
8.373090000E-1,1.288145408E-2,-5.592889711E-2,7.378070951E-1,7.400360011E-1
8.472770000E-1,2.118612640E-2,-5.042388290E-2,7.439273596E-1,7.459352092E-1
8.572450000E-1,2.738836221E-2,-4.448636621E-2,7.478608489E-1,7.496832721E-1
8.672130000E-1,2.583738975E-2,-4.707170650E-2,7.573567629E-1,7.592579157E-1
8.771810000E-1,1.989134960E-2,-4.960916564E-2,7.610681653E-1,7.629426501E-1
8.871490000E-1,1.293357462E-2,-5.312586948E-2,7.666535974E-1,7.686009197E-1
8.971170000E-1,1.565319486E-2,-5.910013989E-2,7.723072171E-1,7.747233614E-1
9.070851250E-1,1.607113332E-2,-5.712253600E-2,7.757199407E-1,7.779863057E-1
9.170531250E-1,2.239986882E-2,-5.053813383E-2,7.809615731E-1,7.829155994E-1
9.270211250E-1,2.651392110E-2,-4.618652910E-2,7.844647169E-1,7.862703578E-1
9.369891250E-1,1.938037761E-2,-4.990670085E-2,7.895556092E-1,7.913686485E-1
9.469571250E-1,1.746026985E-2,-5.683057755E-2,7.907670140E-1,7.929987680E-1
9.569251250E-1,2.308380045E-2,-5.492961407E-2,7.959745526E-1,7.982014863E-1
9.668931250E-1,2.408084460E-2,-4.854714870E-2,7.945592999E-1,7.964051694E-1
9.768611250E-1,2.376872301E-2,-4.884861782E-2,7.987407446E-1,8.005859833E-1
9.868291250E-1,2.345131151E-2,-5.676338077E-2,7.994289398E-1,8.017846813E-1
9.967971250E-1,2.161106654E-2,-5.696151778E-2,8.006955385E-1,8.030099614E-1
1.006765125E0,1.879880764E-2,-5.683735013E-2,8.008204699E-1,8.030549822E-1
1.016733125E0,2.102814056E-2,-5.235711485E-2,8.012260795E-1,8.032102344E-1
1.026701125E0,2.052607760E-2,-5.428644642E-2,8.030644655E-1,8.051589122E-1
1.036669125E0,2.093780227E-2,-5.462307110E-2,8.029811382E-1,8.051091726E-1
1.046637125E0,1.859657094E-2,-5.598871410E-2,8.037497401E-1,8.059120382E-1
1.056605125E0,2.161286771E-2,-5.096172914E-2,7.999848127E-1,8.018976958E-1
1.066573125E0,2.558366768E-2,-4.851439223E-2,8.036857247E-1,8.055550350E-1
1.076541125E0,2.083924599E-2,-4.884009436E-2,7.988379598E-1,8.006008462E-1
1.086508125E0,1.938905194E-2,-5.196036398E-2,7.979750633E-1,7.999000040E-1
1.096476125E0,1.316444576E-2,-5.617002398E-2,7.974245548E-1,7.995087835E-1
1.106444125E0,1.275472343E-2,-5.989845470E-2,7.966288924E-1,7.989794116E-1
1.116412125E0,1.667569764E-2,-6.179728732E-2,7.962778807E-1,7.988463224E-1
1.126380125E0,1.885952801E-2,-5.642882735E-2,7.939351201E-1,7.961613337E-1
1.136348125E0,2.187129669E-2,-5.600991100E-2,7.907803655E-1,7.930630808E-1
1.146316125E0,2.030253038E-2,-5.901703984E-2,7.921548486E-1,7.946096575E-1
1.156284125E0,2.385838330E-2,-5.738026276E-2,7.917854786E-1,7.942203480E-1
1.166252125E0,2.469989285E-2,-4.935541376E-2,7.914835811E-1,7.934055083E-1
1.176220125E0,2.746398747E-2,-4.896312952E-2,7.919371128E-1,7.939244607E-1
1.186188125E0,2.534736879E-2,-4.871673882E-2,7.936564684E-1,7.955541462E-1
1.196156125E0,1.943461783E-2,-5.383427069E-2,7.920894623E-1,7.941546130E-1
1.206124125E0,1.865294576E-2,-5.786697939E-2,7.939712405E-1,7.962957054E-1
1.216092125E0,2.249535359E-2,-5.686429888E-2,7.949067950E-1,7.972555438E-1
1.226060125E0,2.256911620E-2,-5.790851638E-2,7.982398868E-1,8.006557800E-1
1.236028125E0,2.081995085E-2,-5.703206733E-2,8.027827144E-1,8.050752844E-1
1.245996125E0,1.635849476E-2,-5.851012841E-2,8.031151295E-1,8.054098005E-1
1.255964125E0,2.072554454E-2,-6.097994372E-2,8.046547174E-1,8.072281685E-1
1.265932125E0,2.712506615E-2,-5.397420377E-2,8.084737659E-1,8.107273364E-1
1.275900125E0,2.227891050E-2,-4.820712656E-2,8.150195479E-1,8.167479051E-1
1.285868125E0,2.682463825E-2,-5.071074516E-2,8.168705106E-1,8.188825141E-1
1.295836125E0,2.538919449E-2,-5.480535328E-2,8.220444918E-1,8.242605076E-1
1.305804125E0,2.272148058E-2,-5.670568347E-2,8.298612237E-1,8.321066343E-1
1.315772125E0,2.091399208E-2,-5.507023633E-2,8.310772181E-1,8.331623301E-1
1.325740125E0,2.122498304E-2,-5.966814235E-2,8.357057571E-1,8.381019626E-1
1.335708125E0,2.277041599E-2,-6.050517410E-2,8.411911726E-1,8.436717115E-1
1.345676125E0,1.605885848E-2,-6.346075237E-2,8.458213210E-1,8.483506711E-1
1.355644125E0,1.933268085E-2,-6.214088947E-2,8.525044918E-1,8.549848836E-1
1.365612125E0,2.307386883E-2,-6.553161144E-2,8.548985720E-1,8.577169486E-1
1.375580125E0,2.658711001E-2,-5.982871354E-2,8.615668416E-1,8.640507924E-1
1.385548125E0,2.461170778E-2,-5.760124326E-2,8.656142354E-1,8.678776664E-1
1.395515125E0,2.393233590E-2,-6.331931800E-2,8.682097793E-1,8.708445978E-1
1.405483125E0,1.962479204E-2,-6.726948917E-2,8.741698265E-1,8.769738891E-1
1.415451125E0,2.021761239E-2,-6.771024317E-2,8.787126541E-1,8.815494072E-1
1.425419125E0,1.680832170E-2,-7.314981520E-2,8.829960227E-1,8.861802250E-1
1.435387125E0,1.419096626E-2,-7.612642646E-2,8.903881311E-1,8.937492044E-1
1.445355125E0,1.499245502E-2,-8.337590843E-2,8.976581097E-1,9.016464926E-1
1.455323125E0,1.404703315E-2,-9.097949415E-2,9.040387869E-1,9.087137699E-1
1.465291125E0,1.696235314E-2,-9.566140175E-2,9.080092311E-1,9.131919781E-1
1.475259125E0,2.042659372E-2,-1.003861129E-1,9.144673944E-1,9.201876074E-1
1.485227125E0,2.248980664E-2,-1.007163003E-1,9.200264812E-1,9.257960308E-1
1.495195125E0,2.429729514E-2,-9.424562007E-2,9.279701710E-1,9.330601447E-1
1.505163125E0,2.261546254E-2,-9.205105156E-2,9.327070117E-1,9.375111866E-1
1.515131125E0,2.508314699E-2,-8.787760884E-2,9.450137019E-1,9.494222112E-1
1.525099125E0,2.069626004E-2,-8.041650057E-2,9.512042403E-1,9.548217926E-1
1.535067125E0,2.457169071E-2,-7.183793187E-2,9.609838724E-1,9.639784538E-1
1.545035125E0,3.131093457E-2,-5.962190777E-2,9.700044394E-1,9.723393229E-1
1.555003125E0,3.333839774E-2,-5.883547664E-2,9.807300568E-1,9.830587502E-1
1.564971125E0,3.984547779E-2,-5.622791871E-2,9.855592251E-1,9.879657014E-1
1.574939125E0,3.409278393E-2,-5.932171270E-2,9.932006598E-1,9.955545862E-1
1.584907125E0,3.464813903E-2,-5.970553309E-2,9.962937832E-1,9.986824053E-1
1.594875125E0,3.170081973E-2,-6.420574337E-2,9.992587566E-1,1.001821033E0
1.604843125E0,2.717987821E-2,-7.141485065E-2,1.001891375E0,1.004801052E0
1.614811125E0,2.367942035E-2,-8.013217151E-2,1.007410765E0,1.010870085E0
1.624779125E0,2.560787648E-2,-7.860960066E-2,1.015709877E0,1.019069079E0
1.634747125E0,2.558364160E-2,-7.680264860E-2,1.020340323E0,1.023546553E0
1.644715125E0,2.313858271E-2,-7.667720318E-2,1.027883053E0,1.030998719E0
1.654683125E0,2.587338351E-2,-7.813555002E-2,1.031215787E0,1.034495334E0
1.664651125E0,3.107093088E-2,-8.077198267E-2,1.038655043E0,1.042254198E0
1.674619125E0,3.829288855E-2,-6.455813348E-2,1.041538119E0,1.044239317E0
1.684587125E0,3.652421758E-2,-6.344736367E-2,1.047933340E0,1.050487445E0
1.694555125E0,3.808669373E-2,-6.232963502E-2,1.052246094E0,1.054778376E0
1.704522125E0,3.322449327E-2,-6.909349561E-2,1.056928754E0,1.059705699E0
1.714490125E0,3.327189758E-2,-6.681968272E-2,1.061326981E0,1.063948706E0
1.724458125E0,3.083675168E-2,-7.360802591E-2,1.063642740E0,1.066632517E0
1.734426125E0,3.055126220E-2,-7.350070029E-2,1.067326188E0,1.070290112E0
1.744394125E0,2.589408867E-2,-7.958027720E-2,1.071026325E0,1.074290889E0
1.754362125E0,2.859906107E-2,-8.461178839E-2,1.077583909E0,1.081278938E0
1.764330125E0,3.236687556E-2,-7.852768898E-2,1.075872540E0,1.079220059E0
1.774298125E0,3.191973269E-2,-7.849679142E-2,1.078966618E0,1.082289045E0
1.784266125E0,3.560380265E-2,-7.529433072E-2,1.086033702E0,1.089222690E0
1.794234125E0,3.170706332E-2,-7.286659628E-2,1.088827372E0,1.091723373E0
1.804202125E0,3.379885852E-2,-7.699769735E-2,1.095617771E0,1.098839983E0
1.814170125E0,3.438288718E-2,-7.742699981E-2,1.101741433E0,1.104993805E0
1.824138125E0,3.539775684E-2,-6.985728443E-2,1.103180408E0,1.105956624E0
1.834106125E0,3.607047349E-2,-7.165411860E-2,1.106016874E0,1.108922323E0
1.844074125E0,3.459627181E-2,-7.568818331E-2,1.111255527E0,1.114367286E0
1.854042125E0,3.219303861E-2,-7.877132297E-2,1.113021493E0,1.116269751E0
1.864010125E0,3.307777643E-2,-7.692941278E-2,1.116134763E0,1.119271675E0
1.873978125E0,2.953177691E-2,-8.088341355E-2,1.121069670E0,1.124371583E0
1.883946125E0,3.278914094E-2,-8.067429811E-2,1.123666286E0,1.127035666E0
1.893914125E0,3.129138052E-2,-8.224156499E-2,1.128556609E0,1.131981822E0
1.903882125E0,3.390955925E-2,-7.861515880E-2,1.133389473E0,1.136618625E0
1.913850375E0,3.400942683E-2,-8.029987663E-2,1.138689160E0,1.142023518E0
1.923818375E0,3.204819933E-2,-8.114387095E-2,1.142470241E0,1.145796520E0
1.933786375E0,3.166070953E-2,-8.059046417E-2,1.146206617E0,1.149472415E0
1.943754375E0,3.598826006E-2,-7.709313929E-2,1.149567127E0,1.152711190E0
1.953722375E0,3.973426297E-2,-7.787078619E-2,1.155124068E0,1.158427505E0
1.963690375E0,4.070034623E-2,-7.486283779E-2,1.156542301E0,1.159677135E0
1.973658375E0,3.861375898E-2,-7.476456463E-2,1.157571673E0,1.160626099E0
1.983626375E0,3.685935214E-2,-7.922515273E-2,1.160451531E0,1.163736651E0
1.993594375E0,3.508968279E-2,-8.628733456E-2,1.166408777E0,1.170122312E0
2.003561375E0,3.262913600E-2,-8.254165202E-2,1.167988658E0,1.171356176E0
2.013529375E0,3.614530712E-2,-8.172565699E-2,1.171235919E0,1.174640006E0
2.023497375E0,3.634179011E-2,-7.992780209E-2,1.170870662E0,1.174158118E0
2.033465375E0,3.318967298E-2,-8.303011954E-2,1.176794410E0,1.180186696E0
2.043433375E0,3.579181433E-2,-8.264723420E-2,1.178470969E0,1.181907545E0
2.053401375E0,3.978202865E-2,-7.935822755E-2,1.183278441E0,1.186603644E0
2.063369375E0,3.667293116E-2,-8.035221696E-2,1.187393069E0,1.190673626E0
2.073337375E0,3.639037162E-2,-8.386172354E-2,1.188382149E0,1.191893107E0
2.083305375E0,3.761247918E-2,-8.265388757E-2,1.192454576E0,1.195907304E0
2.093273375E0,3.811022267E-2,-8.308425546E-2,1.191043377E0,1.194545817E0
2.103241375E0,3.805538639E-2,-8.195704222E-2,1.195046902E0,1.198458287E0
2.113209375E0,3.745910525E-2,-8.244226873E-2,1.195518494E0,1.198943027E0
2.123177375E0,3.818650916E-2,-8.031082153E-2,1.195069432E0,1.198373475E0
2.133145375E0,3.655399382E-2,-7.906073332E-2,1.197930694E0,1.201093144E0
2.143113375E0,3.565917164E-2,-8.348850161E-2,1.195082784E0,1.198526081E0
2.153081375E0,4.073302448E-2,-8.130151778E-2,1.197533965E0,1.200981563E0
2.163049375E0,3.753536940E-2,-7.991188020E-2,1.195845723E0,1.199100415E0
2.173017375E0,3.713456169E-2,-8.357772231E-2,1.196202397E0,1.199693455E0
2.182985375E0,3.775045648E-2,-8.602501452E-2,1.194378734E0,1.198067594E0
2.192953375E0,3.501432389E-2,-8.468251675E-2,1.194489241E0,1.197999031E0
2.202921375E0,3.707697988E-2,-8.220330626E-2,1.190380216E0,1.193791080E0
2.212889375E0,3.686099872E-2,-8.061499149E-2,1.190124869E0,1.193421432E0
2.222857375E0,3.957453370E-2,-8.384580910E-2,1.188427687E0,1.192038854E0
2.232825375E0,3.808635846E-2,-8.030246943E-2,1.185943723E0,1.189269343E0
2.242793375E0,3.496205062E-2,-7.904855162E-2,1.184740901E0,1.187889734E0
2.252761375E0,3.703878447E-2,-7.718034089E-2,1.181224704E0,1.184322793E0
2.262729375E0,3.585667163E-2,-8.101427555E-2,1.178668857E0,1.181993776E0
2.272697375E0,3.626333922E-2,-7.751141489E-2,1.178313375E0,1.181416716E0
2.282665375E0,3.593350947E-2,-7.895857841E-2,1.171097040E0,1.174305732E0
2.292632375E0,3.478435427E-2,-7.961851358E-2,1.165994763E0,1.169227457E0
2.302600375E0,3.431710973E-2,-8.193519711E-2,1.161829233E0,1.165220240E0
2.312568375E0,3.500606865E-2,-8.299460262E-2,1.157607675E0,1.161106824E0
2.322536375E0,3.524492681E-2,-7.768682390E-2,1.152621627E0,1.155774226E0
2.332504375E0,3.221211955E-2,-7.982374728E-2,1.144684434E0,1.147916332E0
2.342472375E0,3.523500636E-2,-7.979820669E-2,1.140680552E0,1.144011093E0
2.352440375E0,3.572369739E-2,-7.743412256E-2,1.138174772E0,1.141364989E0
2.362408375E0,3.486977890E-2,-7.577481121E-2,1.128747821E0,1.131825679E0
2.372376375E0,3.341303021E-2,-8.110485971E-2,1.125090003E0,1.128504295E0
2.382344375E0,3.187594190E-2,-8.088548481E-2,1.122388482E0,1.125750613E0
2.392312375E0,3.599026054E-2,-7.880529016E-2,1.116745830E0,1.120101255E0
2.402280375E0,3.388234228E-2,-7.691434026E-2,1.110373497E0,1.113549789E0
2.412248375E0,3.691434860E-2,-7.525492460E-2,1.109160185E0,1.112322925E0
2.422216375E0,3.227772936E-2,-8.244363964E-2,1.103316903E0,1.106863584E0
2.432184375E0,3.432543203E-2,-7.948753238E-2,1.099606872E0,1.103010324E0
2.442152375E0,3.206812218E-2,-7.790205628E-2,1.097574234E0,1.100802568E0
2.452120375E0,3.836090490E-2,-7.187931985E-2,1.090893388E0,1.093931707E0
2.462088375E0,3.699091449E-2,-7.149747014E-2,1.086281419E0,1.089260087E0
2.472056375E0,3.270322457E-2,-7.351320982E-2,1.084388375E0,1.087369230E0
2.482024375E0,3.231890500E-2,-7.496479899E-2,1.080879211E0,1.083957611E0
2.491992375E0,3.214233741E-2,-7.551527023E-2,1.076577902E0,1.079701655E0
2.501960375E0,3.056692146E-2,-7.376441360E-2,1.077857137E0,1.080810591E0
2.511928375E0,3.121966310E-2,-7.723744214E-2,1.070464492E0,1.073701317E0
2.521896375E0,3.398668766E-2,-7.563848048E-2,1.070200920E0,1.073408722E0
2.531864375E0,3.420240432E-2,-7.321473211E-2,1.064304352E0,1.067367769E0
2.541832375E0,3.187656403E-2,-6.849519163E-2,1.062220097E0,1.064903395E0
2.551800375E0,3.030157089E-2,-7.638426870E-2,1.058387041E0,1.061572358E0
2.561767375E0,3.224225715E-2,-7.538951188E-2,1.054600954E0,1.057783680E0
2.571735375E0,2.940199524E-2,-7.101154327E-2,1.052720189E0,1.055522105E0
2.581703375E0,3.249509633E-2,-6.824786961E-2,1.049353004E0,1.052071969E0
2.591671375E0,3.058933467E-2,-6.745717674E-2,1.046327591E0,1.048945950E0
2.601639375E0,3.002964333E-2,-6.942061335E-2,1.038599610E0,1.041350158E0
2.611607375E0,3.396899253E-2,-7.008374482E-2,1.035989404E0,1.038912734E0
2.621575375E0,3.320376948E-2,-6.779727340E-2,1.028698683E0,1.031464949E0
2.631543375E0,3.288045898E-2,-6.868676841E-2,1.023029804E0,1.025860116E0
2.641511375E0,3.126221150E-2,-7.274925709E-2,1.018088698E0,1.021163248E0
2.651479375E0,3.013276681E-2,-7.011139393E-2,1.011727452E0,1.014601414E0
2.661447375E0,2.908116020E-2,-7.286036015E-2,1.005411625E0,1.008467591E0
2.671415375E0,2.666194551E-2,-7.351016998E-2,1.003399372E0,1.006441704E0
2.681383375E0,2.575570717E-2,-7.144580036E-2,9.949808717E-1,9.978751394E-1
2.691351375E0,2.830275521E-2,-7.341866940E-2,9.929773211E-1,9.960900096E-1
2.701319375E0,2.769022807E-2,-7.130518556E-2,9.865282178E-1,9.894893141E-1
2.711287375E0,2.386459708E-2,-7.369590551E-2,9.815662503E-1,9.846181540E-1
2.721255375E0,3.018763661E-2,-6.916545331E-2,9.759956598E-1,9.789089239E-1
2.731223375E0,3.188460320E-2,-6.762774289E-2,9.740544558E-1,9.769197625E-1
2.741191375E0,3.421323001E-2,-6.225761771E-2,9.702050090E-1,9.728023003E-1
2.751159375E0,3.349657357E-2,-6.269118190E-2,9.639953375E-1,9.666122363E-1
2.761127375E0,3.517021611E-2,-6.344715506E-2,9.636958838E-1,9.664223931E-1
2.771095375E0,3.408710659E-2,-6.062872708E-2,9.592390656E-1,9.617574322E-1
2.781063375E0,3.408034518E-2,-5.973241851E-2,9.539462924E-1,9.564219574E-1
2.791031375E0,3.049200214E-2,-6.149756163E-2,9.507675171E-1,9.532421433E-1
2.800999375E0,2.810963988E-2,-6.693109870E-2,9.456359148E-1,9.484182660E-1
2.810967375E0,2.460065857E-2,-6.701925397E-2,9.448859692E-1,9.475791616E-1
2.820935375E0,2.733689174E-2,-7.179364562E-2,9.397768974E-1,9.429115813E-1
2.830903375E0,2.571342885E-2,-7.061199844E-2,9.385119081E-1,9.415157122E-1
2.840871375E0,2.832894772E-2,-6.660059839E-2,9.367299676E-1,9.395217939E-1
2.850838375E0,2.756755054E-2,-6.772178411E-2,9.394093752E-1,9.422505952E-1
2.860806375E0,2.802764997E-2,-6.303687394E-2,9.370171428E-1,9.395532569E-1
2.870774375E0,2.956962027E-2,-6.512798369E-2,9.329472780E-1,9.356851181E-1
2.880742375E0,3.167076036E-2,-6.264984608E-2,9.337105751E-1,9.363458113E-1
2.890710375E0,3.062733449E-2,-5.803512037E-2,9.372312427E-1,9.395256841E-1
2.900678375E0,3.223567829E-2,-5.967850983E-2,9.354578257E-1,9.379136459E-1
2.910646250E0,3.281837702E-2,-5.910699815E-2,9.350075126E-1,9.374485221E-1
2.920614250E0,3.304657713E-2,-5.955322832E-2,9.384943843E-1,9.409624714E-1
2.930582250E0,2.867925912E-2,-6.144620478E-2,9.359337091E-1,9.383869372E-1
2.940550250E0,1.980840042E-2,-6.434211880E-2,9.399907589E-1,9.423984867E-1
2.950518250E0,1.910346188E-2,-6.982769817E-2,9.352998137E-1,9.380973251E-1
2.960486250E0,1.833832078E-2,-7.121112198E-2,9.395278692E-1,9.424011539E-1
2.970454250E0,2.606122196E-2,-6.727284193E-2,9.377776384E-1,9.405486280E-1
2.980422250E0,3.253083304E-2,-6.453430653E-2,9.354816079E-1,9.382690289E-1
2.990390250E0,3.579160944E-2,-6.343574822E-2,9.407564998E-1,9.435718973E-1
3.000358250E0,3.381378949E-2,-6.060124934E-2,9.419338107E-1,9.444867323E-1
3.010326250E0,3.235757351E-2,-6.309156865E-2,9.430712461E-1,9.457330141E-1
3.020294250E0,2.657181397E-2,-6.523387879E-2,9.448927641E-1,9.475145676E-1
3.030262250E0,2.319945022E-2,-6.456036866E-2,9.469060898E-1,9.493879073E-1
3.040230250E0,2.724276483E-2,-6.317914277E-2,9.493055940E-1,9.517956099E-1
3.050198250E0,3.088969737E-2,-5.868079513E-2,9.507508874E-1,9.530607845E-1
3.060166250E0,2.626844123E-2,-6.250047684E-2,9.498679638E-1,9.522843531E-1
3.070134250E0,2.594833076E-2,-7.099516690E-2,9.504773021E-1,9.534782280E-1
3.080102250E0,3.174981102E-2,-6.854082644E-2,9.551494718E-1,9.581317283E-1
3.090070250E0,3.055911325E-2,-6.605609506E-2,9.547550678E-1,9.575251990E-1
3.100037250E0,2.831365913E-2,-6.935014576E-2,9.552907944E-1,9.582231514E-1
3.110005250E0,2.640523762E-2,-7.171636075E-2,9.608106613E-1,9.638452157E-1
3.119973250E0,3.058364056E-2,-6.969328225E-2,9.638071060E-1,9.668074525E-1
3.129941250E0,2.883820422E-2,-6.410090625E-2,9.636646509E-1,9.662246776E-1
3.139909250E0,2.714889869E-2,-6.276509911E-2,9.664416909E-1,9.688581229E-1
3.149877250E0,2.656459995E-2,-6.602986902E-2,9.718888998E-1,9.744914854E-1
3.159845250E0,2.761556581E-2,-5.906469747E-2,9.718654156E-1,9.740501239E-1
3.169813250E0,3.285294026E-2,-6.191055477E-2,9.715160131E-1,9.740408597E-1
3.179781250E0,3.215578198E-2,-5.833547935E-2,9.715202451E-1,9.738011137E-1
3.189749250E0,3.148493171E-2,-5.955360830E-2,9.711093307E-1,9.734429954E-1
3.199717250E0,2.954798751E-2,-6.156925112E-2,9.676320553E-1,9.700389944E-1
3.209685250E0,2.830056287E-2,-6.706335396E-2,9.653377533E-1,9.680781958E-1
3.219653250E0,2.698633820E-2,-7.202368975E-2,9.633848667E-1,9.664502448E-1
3.229621250E0,2.555568889E-2,-7.067826390E-2,9.631884098E-1,9.661161540E-1
3.239589250E0,2.541364543E-2,-7.066640258E-2,9.607423544E-1,9.636729037E-1
3.249557250E0,3.053623624E-2,-6.679149717E-2,9.589031935E-1,9.617114434E-1
3.259525250E0,2.914001048E-2,-6.404953450E-2,9.588814378E-1,9.614598769E-1
3.269493250E0,3.321438283E-2,-5.955332145E-2,9.605299830E-1,9.629473722E-1
3.279461250E0,2.844288759E-2,-6.178353727E-2,9.598730803E-1,9.622798624E-1
3.289429250E0,2.851532586E-2,-6.473352015E-2,9.591822624E-1,9.617869644E-1
3.299397250E0,2.701252885E-2,-6.075219810E-2,9.555421472E-1,9.578524423E-1
3.309365250E0,3.027649969E-2,-5.764029920E-2,9.546958208E-1,9.569133612E-1
3.319333250E0,3.267149627E-2,-5.855330825E-2,9.529141784E-1,9.552703010E-1
3.329301250E0,3.304141015E-2,-6.085321307E-2,9.518395662E-1,9.543549697E-1
3.339269250E0,3.200332075E-2,-6.604347378E-2,9.484090805E-1,9.512443098E-1
3.349237250E0,3.104404919E-2,-6.925311685E-2,9.473667741E-1,9.504017739E-1
3.359205250E0,2.925232612E-2,-6.492915004E-2,9.443223476E-1,9.470037959E-1
3.369172250E0,2.855404466E-2,-6.466896087E-2,9.406008720E-1,9.432536289E-1
3.379140250E0,2.742634714E-2,-6.739372760E-2,9.396754503E-1,9.424882339E-1
3.389108250E0,2.213491313E-2,-6.678279489E-2,9.373808503E-1,9.400174225E-1
3.399076250E0,2.425723709E-2,-7.034099102E-2,9.373157620E-1,9.402643811E-1
3.409044250E0,2.317466214E-2,-6.750871986E-2,9.351114631E-1,9.378315097E-1
3.419012250E0,2.993645519E-2,-6.145892292E-2,9.334642887E-1,9.359641921E-1
3.428980250E0,3.392533585E-2,-6.251167506E-2,9.322999716E-1,9.350090240E-1
3.438948250E0,3.299762681E-2,-5.958112329E-2,9.272004962E-1,9.296986145E-1
3.448916250E0,3.364477307E-2,-6.109939143E-2,9.253780842E-1,9.280030738E-1
3.458884250E0,3.016271815E-2,-6.089923903E-2,9.253591895E-1,9.278513547E-1
3.468852250E0,2.763324976E-2,-6.220445409E-2,9.218094349E-1,9.243190060E-1
3.478820250E0,2.717202716E-2,-6.257236749E-2,9.222993255E-1,9.248187206E-1
3.488788250E0,2.893077768E-2,-6.015741080E-2,9.246770144E-1,9.270833214E-1
3.498756250E0,2.738142945E-2,-5.957742408E-2,9.231995344E-1,9.255250361E-1
3.508724250E0,2.556595206E-2,-6.044747680E-2,9.181744456E-1,9.205171525E-1
3.518692250E0,2.452469245E-2,-6.247052923E-2,9.168668389E-1,9.193197637E-1
3.528660250E0,2.669117413E-2,-6.474673748E-2,9.167552590E-1,9.194263232E-1
3.538628250E0,2.512378246E-2,-6.098271161E-2,9.139680266E-1,9.163447219E-1
3.548596250E0,2.603990957E-2,-6.000160426E-2,9.119371176E-1,9.142798126E-1
3.558564250E0,2.655102126E-2,-5.691254884E-2,9.084780812E-1,9.106461547E-1
3.568532250E0,2.834892273E-2,-6.469643861E-2,9.069057703E-1,9.096523329E-1
3.578500250E0,2.630504966E-2,-6.242278591E-2,9.069132805E-1,9.094395297E-1
3.588468250E0,2.601290122E-2,-6.159773842E-2,9.069087505E-1,9.093703504E-1
3.598436250E0,2.550221793E-2,-6.220483780E-2,9.049151540E-1,9.074090813E-1
3.608404250E0,2.675283700E-2,-6.953625381E-2,9.060915112E-1,9.091495101E-1
3.618371250E0,2.788281068E-2,-6.351908296E-2,9.052292705E-1,9.078833389E-1
3.628339250E0,2.854727022E-2,-5.414768681E-2,9.038828015E-1,9.059531100E-1
3.638307250E0,3.212023154E-2,-5.889021978E-2,8.976231813E-1,9.001261817E-1
3.648275250E0,3.313223273E-2,-5.299025401E-2,8.972250223E-1,8.993989396E-1
3.658243250E0,3.051447496E-2,-5.363579839E-2,8.924589753E-1,8.945898248E-1
3.668211250E0,2.856876887E-2,-5.410344899E-2,8.888626099E-1,8.909658226E-1
3.678179250E0,2.741905674E-2,-5.599685013E-2,8.888048530E-1,8.909890676E-1
3.688147250E0,2.530583739E-2,-5.940916389E-2,8.852775097E-1,8.876294854E-1
3.698115250E0,2.316510119E-2,-6.705289334E-2,8.847316504E-1,8.875712960E-1
3.708083250E0,1.884438843E-2,-7.027638704E-2,8.853214979E-1,8.883062739E-1
3.718051250E0,2.413042262E-2,-6.526879966E-2,8.840461373E-1,8.867806191E-1
3.728019250E0,2.525507659E-2,-6.543684751E-2,8.832197189E-1,8.860004920E-1
3.737987250E0,2.260541916E-2,-6.476142257E-2,8.839472532E-1,8.866046432E-1
3.747955250E0,3.121914715E-2,-5.619349703E-2,8.802390695E-1,8.825832333E-1
3.757923250E0,2.800036594E-2,-5.327861011E-2,8.854155540E-1,8.874589197E-1
3.767891250E0,2.782166936E-2,-5.440619215E-2,8.838226795E-1,8.859326204E-1
3.777859250E0,2.582634613E-2,-5.270943046E-2,8.836308122E-1,8.855781707E-1
3.787827250E0,2.662849054E-2,-5.633266270E-2,8.834414482E-1,8.856360640E-1
3.797795250E0,2.240535803E-2,-5.776347965E-2,8.856245279E-1,8.877890651E-1
3.807763250E0,2.622592822E-2,-6.216701493E-2,8.837823868E-1,8.863542431E-1
3.817731250E0,3.026061505E-2,-6.314010918E-2,8.806484938E-1,8.834275000E-1
3.827699250E0,3.032959066E-2,-6.176112592E-2,8.810384274E-1,8.837211275E-1
3.837667250E0,2.705435641E-2,-6.397337466E-2,8.805893660E-1,8.833244943E-1
3.847635250E0,1.974930428E-2,-6.745839119E-2,8.827185631E-1,8.855126940E-1
3.857602250E0,2.024380118E-2,-6.761450320E-2,8.854084611E-1,8.882171331E-1
3.867570250E0,2.475200035E-2,-6.133956462E-2,8.847890496E-1,8.872580606E-1
3.877538250E0,2.765224688E-2,-5.376124009E-2,8.877596259E-1,8.898157512E-1
3.887506250E0,2.745037898E-2,-4.845728725E-2,8.893463016E-1,8.910883660E-1
3.897474250E0,2.910775878E-2,-5.481278896E-2,8.901498914E-1,8.923107825E-1
3.907442500E0,2.766272798E-2,-5.723546818E-2,8.878523707E-1,8.901252482E-1
3.917410500E0,2.473589033E-2,-5.916483328E-2,8.850268722E-1,8.873471171E-1
3.927378500E0,2.798654325E-2,-5.857334659E-2,8.838346004E-1,8.862153714E-1
3.937346500E0,3.189752623E-2,-6.396010518E-2,8.829660416E-1,8.858540386E-1
3.947314500E0,3.300832957E-2,-6.253850460E-2,8.828781843E-1,8.857056524E-1
3.957282500E0,3.318849206E-2,-6.146685779E-2,8.846017718E-1,8.873555913E-1
3.967250500E0,2.822729200E-2,-5.961223319E-2,8.887083530E-1,8.911525880E-1
3.977218500E0,2.119285241E-2,-7.145996392E-2,8.912925124E-1,8.944037154E-1
3.987186500E0,2.087007649E-2,-6.578662992E-2,8.955442905E-1,8.981998759E-1
3.997154500E0,2.363091893E-2,-5.878416076E-2,8.946061134E-1,8.968467517E-1
4.007122500E0,2.272917144E-2,-6.077221036E-2,8.997055292E-1,9.020420811E-1
4.017090500E0,3.111408278E-2,-5.209089816E-2,8.998215199E-1,9.018649097E-1
4.027058500E0,2.740003727E-2,-4.578985646E-2,8.949058056E-1,8.964953284E-1
4.037026500E0,2.470944263E-2,-5.303524435E-2,8.920471072E-1,8.939638333E-1
4.046994500E0,2.132083662E-2,-6.545835733E-2,8.944529891E-1,8.970983917E-1
4.056962500E0,2.959224768E-2,-6.779966503E-2,8.934831619E-1,8.965403819E-1
4.066930500E0,3.181758523E-2,-5.898699537E-2,8.906884193E-1,8.932064066E-1
4.076898500E0,2.494079247E-2,-6.126246974E-2,8.967739344E-1,8.992099992E-1
4.086866500E0,1.752495393E-2,-7.462461293E-2,9.001260400E-1,9.033841070E-1
4.096834500E0,1.670672558E-2,-7.673050463E-2,9.055857062E-1,9.089841343E-1
4.106801500E0,1.892274246E-2,-7.205186784E-2,9.085090756E-1,9.115581618E-1
4.116769500E0,2.399928309E-2,-6.510164589E-2,9.157998562E-1,9.184245023E-1
4.126737500E0,2.544884197E-2,-6.433758140E-2,9.232125282E-1,9.258014583E-1
4.136705500E0,2.990090288E-2,-5.942081288E-2,9.319050312E-1,9.342761284E-1
4.146673500E0,2.554343827E-2,-6.450931728E-2,9.439182281E-1,9.464647593E-1
4.156641500E0,2.160864882E-2,-7.383848727E-2,9.573864341E-1,9.604727170E-1
4.166609500E0,2.545744926E-2,-7.934989780E-2,9.710236788E-1,9.745929780E-1
4.176577500E0,2.508742549E-2,-7.440209389E-2,9.805362821E-1,9.836749722E-1
4.186545500E0,2.661288343E-2,-7.581223547E-2,9.914112687E-1,9.946617738E-1
4.196513500E0,3.215857223E-2,-6.940834969E-2,1.001729965E0,1.004646513E0
4.206481500E0,2.816702425E-2,-6.810500473E-2,1.014103532E0,1.016778071E0
4.216449500E0,2.883292362E-2,-6.970360130E-2,1.027208447E0,1.029974332E0
4.226417500E0,3.054719977E-2,-6.933475286E-2,1.037789464E0,1.040551494E0
4.236385500E0,2.754601277E-2,-7.088521123E-2,1.049860835E0,1.052611642E0
4.246353500E0,3.241933137E-2,-7.295528054E-2,1.063922048E0,1.066913122E0
4.256321500E0,3.032565117E-2,-7.166432589E-2,1.076155424E0,1.078965207E0
4.266289500E0,3.009155951E-2,-7.106404752E-2,1.082559586E0,1.085306803E0
4.276257500E0,3.408454359E-2,-7.416811585E-2,1.091092348E0,1.094141297E0
4.286225500E0,3.422435746E-2,-7.897272706E-2,1.100050449E0,1.103412429E0
4.296193500E0,4.116453975E-2,-7.186625898E-2,1.106857181E0,1.109951394E0
4.306161500E0,3.636952117E-2,-7.054959238E-2,1.114493489E0,1.117316305E0
4.316129500E0,3.241351247E-2,-7.658242434E-2,1.120388269E0,1.123470239E0
4.326097500E0,3.223694488E-2,-7.869005203E-2,1.127447724E0,1.130650130E0
4.336064500E0,3.224579617E-2,-8.129911870E-2,1.132560253E0,1.135932245E0
4.346032500E0,3.192834929E-2,-7.968471199E-2,1.137854099E0,1.141087650E0
4.356000500E0,3.441517428E-2,-7.549168915E-2,1.144426346E0,1.147429763E0
4.365968500E0,3.088621795E-2,-8.091308922E-2,1.149669051E0,1.152926630E0
4.375936500E0,3.169782087E-2,-8.644157648E-2,1.150293469E0,1.153972254E0
4.385904500E0,3.579083458E-2,-8.008646965E-2,1.151227474E0,1.154564647E0
4.395872500E0,4.297516122E-2,-7.376486808E-2,1.156360507E0,1.159507543E0
4.405840500E0,4.159671068E-2,-7.031101733E-2,1.155855536E0,1.158738947E0
4.415808500E0,3.725503385E-2,-7.643660158E-2,1.160606146E0,1.163716940E0
4.425776500E0,3.406589851E-2,-7.739906758E-2,1.160959601E0,1.164035350E0
4.435744500E0,3.264564276E-2,-7.625711709E-2,1.162523031E0,1.165478736E0
4.445712500E0,3.035558760E-2,-7.701291889E-2,1.161398649E0,1.164344998E0
4.455680500E0,3.308356926E-2,-7.849778235E-2,1.163402677E0,1.166517129E0
4.465648500E0,3.299728408E-2,-8.170875162E-2,1.159491539E0,1.162835229E0
4.475616500E0,3.529636562E-2,-8.203941584E-2,1.155080080E0,1.158527639E0
4.485584500E0,4.024638236E-2,-7.552506030E-2,1.151199818E0,1.154376380E0
4.495552500E0,3.473012149E-2,-7.421243936E-2,1.145913005E0,1.148838667E0
4.505520500E0,4.556199908E-2,-7.478688657E-2,1.141179204E0,1.144534381E0
4.515488500E0,4.214382544E-2,-7.345607877E-2,1.136929274E0,1.140078976E0
4.525456500E0,3.724973276E-2,-7.594347000E-2,1.133868217E0,1.137018948E0
4.535424500E0,3.321933001E-2,-7.676223665E-2,1.129306316E0,1.132399541E0
4.545392500E0,2.608632296E-2,-7.934044302E-2,1.127986431E0,1.131074176E0
4.555360500E0,2.655884810E-2,-7.953197509E-2,1.123573780E0,1.126698161E0
4.565328500E0,2.371219546E-2,-8.568893373E-2,1.118097544E0,1.121626934E0
4.575295500E0,2.421859652E-2,-8.556777984E-2,1.115145802E0,1.118686080E0
4.585263500E0,2.905463055E-2,-8.022201806E-2,1.108451128E0,1.111730024E0
4.595231500E0,3.782753646E-2,-7.506687194E-2,1.103761077E0,1.106957304E0
4.605199500E0,3.911783546E-2,-7.218293846E-2,1.099919200E0,1.102979070E0
4.615167500E0,4.101938754E-2,-6.580274552E-2,1.094957590E0,1.097699738E0
4.625135500E0,3.843452036E-2,-6.297393143E-2,1.088625193E0,1.091122238E0
4.635103500E0,3.794839233E-2,-6.949081272E-2,1.084706068E0,1.087591977E0
4.645071500E0,3.129847720E-2,-7.425867021E-2,1.076954722E0,1.079965471E0
4.655039500E0,2.809889987E-2,-7.409811765E-2,1.075218558E0,1.078134976E0
4.665007500E0,2.683443017E-2,-7.574980706E-2,1.072826028E0,1.075831681E0
4.674975500E0,1.955044642E-2,-8.483875543E-2,1.067808390E0,1.071351759E0
4.684943500E0,2.055685595E-2,-9.000262618E-2,1.065759063E0,1.069750175E0
4.694911500E0,2.372604609E-2,-8.425191790E-2,1.058468103E0,1.062080994E0
4.704879500E0,2.543819137E-2,-8.052322268E-2,1.054146290E0,1.057523282E0
4.714847500E0,3.127687797E-2,-8.417296410E-2,1.054941535E0,1.058756333E0
4.724815500E0,4.014173895E-2,-7.144252211E-2,1.051382780E0,1.054571545E0
4.734783500E0,3.973750398E-2,-6.389497966E-2,1.051477551E0,1.054166343E0
4.744751500E0,3.896252438E-2,-6.819332391E-2,1.054175138E0,1.057096793E0
4.754719500E0,3.905437142E-2,-6.290150434E-2,1.050381184E0,1.052987405E0
4.764687500E0,3.480130434E-2,-6.235289201E-2,1.051293850E0,1.053716173E0
4.774655500E0,3.019928187E-2,-6.416965276E-2,1.051518321E0,1.053907264E0
4.784623500E0,2.582344227E-2,-7.224195451E-2,1.049745440E0,1.052545125E0
4.794591500E0,2.781652659E-2,-7.555589080E-2,1.045957088E0,1.049051325E0
4.804558500E0,2.337064594E-2,-7.826752216E-2,1.044070482E0,1.047260791E0
4.814526500E0,2.362774871E-2,-8.363661915E-2,1.040983558E0,1.044605247E0
4.824494500E0,2.309431694E-2,-8.417111635E-2,1.037484169E0,1.041149137E0
4.834462500E0,3.048607707E-2,-8.119938523E-2,1.034734130E0,1.038362875E0
4.844430500E0,3.640708327E-2,-7.559103519E-2,1.035853028E0,1.039245388E0
4.854398500E0,3.575903177E-2,-6.868743151E-2,1.033470511E0,1.036367681E0
4.864366500E0,3.260904551E-2,-7.164034247E-2,1.032045960E0,1.035043261E0
4.874334500E0,3.182495758E-2,-7.320767641E-2,1.033985019E0,1.037061816E0
4.884302500E0,2.450898848E-2,-7.298290730E-2,1.036292434E0,1.039148307E0
4.894270500E0,3.002277017E-2,-7.233432680E-2,1.039045811E0,1.041993195E0
4.904238500E0,3.248193488E-2,-6.772625446E-2,1.038921714E0,1.041633452E0
4.914206250E0,3.212885186E-2,-6.436263025E-2,1.039769769E0,1.042255239E0
4.924174250E0,3.174455836E-2,-7.082745433E-2,1.044223666E0,1.047104250E0
4.934142250E0,2.701204084E-2,-8.060440421E-2,1.042419076E0,1.045879654E0
4.944110250E0,2.827917412E-2,-8.062757552E-2,1.047202110E0,1.050682053E0
4.954078250E0,3.176476806E-2,-7.164705545E-2,1.045416832E0,1.048350444E0
4.964046250E0,3.522634506E-2,-6.926991791E-2,1.045231462E0,1.048116418E0
4.974014250E0,3.538176790E-2,-7.402590662E-2,1.046881199E0,1.050091400E0
4.983982250E0,3.484460711E-2,-7.207567245E-2,1.049654126E0,1.052702633E0
4.993950250E0,3.233098611E-2,-6.817174703E-2,1.051106095E0,1.053810563E0
5.003918250E0,2.888378873E-2,-7.465308905E-2,1.052830219E0,1.055868755E0
5.013886250E0,2.852769755E-2,-7.747538388E-2,1.054722905E0,1.057949276E0
5.023853250E0,3.025742061E-2,-7.313469797E-2,1.055928826E0,1.058890873E0
5.033821250E0,3.374775499E-2,-7.086355239E-2,1.055995107E0,1.058908032E0
5.043789250E0,3.267796338E-2,-7.387958467E-2,1.059177041E0,1.062253287E0
5.053757250E0,3.417927027E-2,-7.537233829E-2,1.063033104E0,1.066249779E0
5.063725250E0,3.390043974E-2,-7.427138835E-2,1.064051032E0,1.067178559E0
5.073693250E0,3.404712677E-2,-6.850730628E-2,1.067138076E0,1.069876690E0
5.083661250E0,3.128835931E-2,-6.968602538E-2,1.067259789E0,1.069989981E0
5.093629250E0,2.904986590E-2,-7.521831989E-2,1.070576429E0,1.073608672E0
5.103597250E0,2.286547422E-2,-7.765591145E-2,1.072181702E0,1.075233403E0
5.113565250E0,2.997791953E-2,-7.591529936E-2,1.075273871E0,1.078367148E0
5.123533250E0,2.552218549E-2,-7.917767018E-2,1.074627042E0,1.077842180E0
5.133501250E0,3.598234057E-2,-7.449446619E-2,1.072412133E0,1.075598409E0
5.143469250E0,4.380138218E-2,-6.523625553E-2,1.073949575E0,1.076820329E0
5.153437250E0,3.931903839E-2,-6.875678897E-2,1.071428180E0,1.074351817E0
5.163405250E0,3.093007952E-2,-7.833031565E-2,1.075982213E0,1.079272918E0
5.173373250E0,2.881097607E-2,-8.345306665E-2,1.078291893E0,1.081900131E0
5.183341250E0,2.549960278E-2,-8.361259103E-2,1.081099629E0,1.084627910E0
5.193309250E0,3.109224513E-2,-7.248990983E-2,1.080715299E0,1.083589900E0
5.203277250E0,3.198200464E-2,-7.342387736E-2,1.082159758E0,1.085119189E0
5.213245250E0,3.916459903E-2,-7.695329934E-2,1.085315466E0,1.088744845E0
5.223213250E0,3.582179919E-2,-7.438627630E-2,1.086788535E0,1.089920107E0
5.233181250E0,3.208493441E-2,-7.748117298E-2,1.088190079E0,1.091416704E0
5.243149250E0,3.223939613E-2,-7.701192796E-2,1.089988828E0,1.093181531E0
5.253116250E0,3.201976418E-2,-7.962028682E-2,1.088934541E0,1.092310894E0
5.263084250E0,4.016264528E-2,-7.255198807E-2,1.092222810E0,1.095366375E0
5.273052250E0,3.984514624E-2,-7.136029005E-2,1.092741013E0,1.095793250E0
5.283020250E0,3.755642474E-2,-7.446393371E-2,1.098203063E0,1.101365212E0
5.292988250E0,2.986452729E-2,-8.249114454E-2,1.100485563E0,1.103976972E0
5.302956250E0,3.209891915E-2,-8.169353008E-2,1.104836345E0,1.108317428E0
5.312924250E0,3.411991149E-2,-7.961167395E-2,1.110341191E0,1.113714393E0
5.322892250E0,3.707894683E-2,-7.652879506E-2,1.113092303E0,1.116335962E0
5.332860250E0,3.880433366E-2,-7.543099672E-2,1.120168805E0,1.123376056E0
5.342828250E0,3.435578942E-2,-7.391618937E-2,1.124764562E0,1.127714167E0
5.352796250E0,3.299837559E-2,-7.783237100E-2,1.134646773E0,1.137791752E0
5.362764250E0,3.013920411E-2,-8.019059896E-2,1.136747241E0,1.139970699E0
5.372732250E0,3.446306288E-2,-7.911659777E-2,1.137571931E0,1.140840496E0
5.382700250E0,3.617680445E-2,-7.439214736E-2,1.143034339E0,1.146023758E0
5.392668250E0,3.232283518E-2,-7.904452085E-2,1.150140047E0,1.153306087E0
5.402636250E0,2.910493687E-2,-8.492345363E-2,1.153543234E0,1.157031150E0
5.412604250E0,2.872226760E-2,-8.989195526E-2,1.162413716E0,1.166238046E0
5.422572250E0,3.626114503E-2,-8.908049017E-2,1.171480894E0,1.175422345E0
5.432540250E0,3.773741797E-2,-8.419577777E-2,1.180379510E0,1.183980080E0
5.442508250E0,4.294203222E-2,-8.748558164E-2,1.189932585E0,1.193916790E0
5.452476250E0,4.505250603E-2,-8.831403404E-2,1.197311163E0,1.201408805E0
5.462443250E0,4.110942781E-2,-8.743944764E-2,1.210870743E0,1.214719555E0
5.472411250E0,3.176786378E-2,-9.112101793E-2,1.219153285E0,1.222966463E0
5.482379250E0,2.759495564E-2,-9.300679713E-2,1.230102062E0,1.233921727E0
5.492347250E0,2.683621645E-2,-9.847851843E-2,1.241464615E0,1.245653480E0
5.502315250E0,3.440758213E-2,-1.004644409E-1,1.249744892E0,1.254248493E0
5.512283250E0,4.264604300E-2,-8.898289502E-2,1.259498596E0,1.263357968E0
5.522251250E0,4.916306585E-2,-8.934348822E-2,1.269261718E0,1.273351709E0
5.532219250E0,4.215770215E-2,-9.052226692E-2,1.279300928E0,1.283192276E0
5.542187250E0,3.744550422E-2,-9.852346778E-2,1.287673950E0,1.291980356E0
5.552155250E0,3.891975060E-2,-1.071871966E-1,1.299257159E0,1.304251896E0
5.562123250E0,4.139702395E-2,-1.013135985E-1,1.310167670E0,1.314730955E0
5.572091250E0,4.393115267E-2,-9.449882805E-2,1.322290659E0,1.326390803E0
5.582059250E0,4.546513408E-2,-9.491268545E-2,1.332174420E0,1.336324879E0
5.592027250E0,4.233107343E-2,-9.624993056E-2,1.343392611E0,1.347501271E0
5.601995250E0,3.972224146E-2,-9.732105583E-2,1.353882551E0,1.357956997E0
5.611963250E0,3.777741268E-2,-1.012463346E-1,1.364715338E0,1.368987183E0
5.621931250E0,3.836570308E-2,-1.004210189E-1,1.372820854E0,1.377023386E0
5.631899250E0,4.135579616E-2,-1.003319174E-1,1.382711411E0,1.386963460E0
5.641867250E0,4.737853631E-2,-9.710922092E-2,1.393067598E0,1.397251681E0
5.651835250E0,5.269447342E-2,-9.518215805E-2,1.403749347E0,1.407959012E0
5.661803250E0,5.009256303E-2,-9.565380216E-2,1.411250353E0,1.415375029E0
5.671771250E0,4.842457175E-2,-1.020337194E-1,1.419875264E0,1.424360062E0
5.681739250E0,4.710417613E-2,-9.906748682E-2,1.427936912E0,1.432144194E0
5.691706250E0,4.304256290E-2,-1.007321253E-1,1.435048461E0,1.439223300E0
5.701674250E0,4.486176744E-2,-1.055207551E-1,1.442954898E0,1.447503383E0
5.711642250E0,4.930208251E-2,-1.020707339E-1,1.447006226E0,1.451439336E0
5.721610250E0,5.458952487E-2,-9.785308689E-2,1.451313615E0,1.455632664E0
5.731578250E0,5.764481053E-2,-9.004432708E-2,1.453814030E0,1.457740079E0
5.741546250E0,5.268467218E-2,-9.327606857E-2,1.457863688E0,1.461794320E0
5.751514250E0,4.616483301E-2,-9.909926355E-2,1.460515499E0,1.464601440E0
5.761482250E0,4.699600860E-2,-1.003363058E-1,1.462118149E0,1.466310158E0
5.771450250E0,4.726599529E-2,-1.027587131E-1,1.461589813E0,1.465959825E0
5.781418250E0,5.358221382E-2,-1.028146446E-1,1.462545395E0,1.467133578E0
5.791386250E0,5.022446811E-2,-1.021961644E-1,1.462648034E0,1.467073899E0
5.801354250E0,5.321413279E-2,-9.870316088E-2,1.464284539E0,1.468571847E0
5.811322250E0,4.595204070E-2,-1.020263359E-1,1.464406490E0,1.468675367E0
5.821290250E0,4.008323327E-2,-1.124161258E-1,1.462499619E0,1.467361300E0
5.831258250E0,4.222502559E-2,-1.096677929E-1,1.460248828E0,1.464969835E0
5.841226250E0,4.841501266E-2,-9.926388413E-2,1.460184932E0,1.464355615E0
5.851194250E0,5.286858976E-2,-9.254355729E-2,1.458728790E0,1.462617203E0
5.861162250E0,5.164114013E-2,-9.303144366E-2,1.453936338E0,1.457824589E0
5.871130250E0,4.681056365E-2,-9.637504071E-2,1.450495362E0,1.454447034E0
5.881098250E0,5.029504001E-2,-1.018430367E-1,1.448362947E0,1.452809974E0
5.891065250E0,5.543065816E-2,-9.224622697E-2,1.442505717E0,1.446514662E0
5.901033250E0,5.135948211E-2,-9.671634436E-2,1.440059066E0,1.444216729E0
5.911000875E0,4.843485728E-2,-1.016191915E-1,1.438170671E0,1.442569678E0
5.920968875E0,4.440762475E-2,-1.026397124E-1,1.431466460E0,1.435828393E0
5.930936875E0,4.048997909E-2,-1.045236290E-1,1.428259730E0,1.432651557E0
5.940904875E0,3.638631105E-2,-1.044061854E-1,1.423338175E0,1.427626063E0
5.950872875E0,4.320624098E-2,-1.027285382E-1,1.417039037E0,1.421414635E0
5.960840875E0,4.928303882E-2,-9.514785558E-2,1.408802748E0,1.412871938E0
5.970808875E0,5.304696783E-2,-9.091828018E-2,1.408819556E0,1.412746494E0
5.980776875E0,5.102642626E-2,-9.279021621E-2,1.397708297E0,1.401714023E0
5.990744875E0,4.534976557E-2,-9.621344507E-2,1.392672539E0,1.396728473E0
6.000712875E0,4.538225755E-2,-9.602036327E-2,1.385512948E0,1.389577486E0
6.010680875E0,4.419089481E-2,-9.508480132E-2,1.377826810E0,1.381810650E0
6.020648875E0,4.378103465E-2,-9.620039910E-2,1.372275829E0,1.376340164E0
6.030616875E0,3.831201792E-2,-9.526342899E-2,1.365197062E0,1.369052939E0
6.040584875E0,3.796820343E-2,-1.024872512E-1,1.358855844E0,1.363244081E0
6.050552875E0,4.441788048E-2,-9.697166085E-2,1.353507161E0,1.357703239E0
6.060520875E0,4.575558379E-2,-9.589281678E-2,1.347705960E0,1.351887703E0
6.070488875E0,4.751976579E-2,-9.284849465E-2,1.339285851E0,1.343341193E0
6.080456875E0,4.791098461E-2,-8.778102696E-2,1.334830642E0,1.338571557E0
6.090424875E0,4.590924457E-2,-8.980379999E-2,1.326467395E0,1.330296257E0
6.100392875E0,4.310706630E-2,-9.103365242E-2,1.321796656E0,1.325628811E0
6.110359875E0,4.302885011E-2,-8.709380776E-2,1.313509107E0,1.317096423E0
6.120327875E0,4.205439985E-2,-8.774361759E-2,1.306873322E0,1.310490516E0
6.130295875E0,4.264071956E-2,-8.717061579E-2,1.299625278E0,1.303243189E0
6.140263875E0,4.440000281E-2,-8.714079112E-2,1.290082097E0,1.293783867E0
6.150231875E0,4.171833023E-2,-8.404460549E-2,1.281031489E0,1.284463153E0
6.160199875E0,4.018781334E-2,-8.910487592E-2,1.271193981E0,1.274946617E0
6.170167875E0,4.214361683E-2,-8.911380172E-2,1.262815237E0,1.266656890E0
6.180135875E0,4.324030504E-2,-8.430813253E-2,1.253011584E0,1.256588881E0
6.190103875E0,4.537997395E-2,-8.232869953E-2,1.240727186E0,1.244283451E0
6.200071875E0,4.236314446E-2,-8.779430389E-2,1.235780358E0,1.239619123E0
6.210039875E0,3.468159586E-2,-8.912883699E-2,1.224667668E0,1.228396378E0
6.220007875E0,3.719561920E-2,-8.838261664E-2,1.216518402E0,1.220291778E0
6.229975875E0,3.434883431E-2,-8.572477847E-2,1.207666278E0,1.211192148E0
6.239943875E0,3.895716742E-2,-8.622651547E-2,1.198774576E0,1.202502872E0
6.249911875E0,4.023615271E-2,-8.101657033E-2,1.190292001E0,1.193724290E0
6.259879875E0,3.955917805E-2,-7.856938988E-2,1.183912992E0,1.187176504E0
6.269847875E0,3.954445198E-2,-7.851530612E-2,1.171050310E0,1.174345454E0
6.279815875E0,3.592441604E-2,-7.939255238E-2,1.158595800E0,1.161868310E0
6.289783875E0,3.983755410E-2,-7.811618596E-2,1.146830678E0,1.150178148E0
6.299751875E0,3.786228597E-2,-7.611589134E-2,1.139585376E0,1.142751946E0
6.309719875E0,3.971281275E-2,-7.387787849E-2,1.127307177E0,1.130423159E0
6.319686875E0,3.856286034E-2,-7.519481331E-2,1.116663575E0,1.119856640E0
6.329654875E0,3.661649302E-2,-7.506220043E-2,1.106686115E0,1.109832987E0
6.339622875E0,3.344759718E-2,-7.850220799E-2,1.092468381E0,1.095795830E0
6.349590875E0,3.120033629E-2,-7.877723873E-2,1.083881497E0,1.087188307E0
6.359558875E0,2.981016785E-2,-7.806058228E-2,1.072840810E0,1.076089914E0
6.369526875E0,3.028474376E-2,-7.676789910E-2,1.060261726E0,1.063468572E0
6.379494875E0,3.171459585E-2,-7.294812799E-2,1.048889279E0,1.051901120E0
6.389462875E0,3.871740028E-2,-6.920647621E-2,1.038944840E0,1.041966868E0
6.399430875E0,3.750086948E-2,-6.664291769E-2,1.026588321E0,1.029432452E0
6.409398875E0,3.461890295E-2,-6.500390917E-2,1.016588449E0,1.019252693E0
6.419366875E0,3.004492633E-2,-6.842047721E-2,1.001058459E0,1.003843662E0
6.429334875E0,3.057670780E-2,-6.537757814E-2,9.900761247E-1,9.927033270E-1
6.439302875E0,2.876788937E-2,-6.826072186E-2,9.784756899E-1,9.812755950E-1
6.449270875E0,2.896842174E-2,-6.807804853E-2,9.641062617E-1,9.669408845E-1
6.459238875E0,3.053942136E-2,-7.157531381E-2,9.540110230E-1,9.571795620E-1
6.469206875E0,2.867723443E-2,-6.806990504E-2,9.405246973E-1,9.434206919E-1
6.479174875E0,2.813554741E-2,-6.831651181E-2,9.311490655E-1,9.340756591E-1
6.489142875E0,2.510990202E-2,-7.036011666E-2,9.201473594E-1,9.231750734E-1
6.499110875E0,2.928733826E-2,-6.857766211E-2,9.089330435E-1,9.119867989E-1
6.509078875E0,3.072911873E-2,-6.148625538E-2,9.020784497E-1,9.046935215E-1
6.519046875E0,3.218453750E-2,-5.634954944E-2,8.924924135E-1,8.948484924E-1
6.529013875E0,3.143024817E-2,-5.791328475E-2,8.860981464E-1,8.885447283E-1
6.538981875E0,2.501016483E-2,-5.705415085E-2,8.746532202E-1,8.768688272E-1
6.548949875E0,2.543249168E-2,-5.674475431E-2,8.656740785E-1,8.679045967E-1
6.558917875E0,2.508920990E-2,-5.377773196E-2,8.541809320E-1,8.562397898E-1
6.568885875E0,2.949122898E-2,-5.334235355E-2,8.450719118E-1,8.472671806E-1
6.578853875E0,2.659184486E-2,-5.168560147E-2,8.343750834E-1,8.363972187E-1
6.588821875E0,2.622800693E-2,-5.682127178E-2,8.206882477E-1,8.230709357E-1
6.598789875E0,2.451665886E-2,-5.625375360E-2,8.120326996E-1,8.143479947E-1
6.608757875E0,2.600533701E-2,-5.698417872E-2,8.036046028E-1,8.060420782E-1
6.618725875E0,2.538295649E-2,-5.769710243E-2,7.941010594E-1,7.965988593E-1
6.628693875E0,2.522332408E-2,-5.761757493E-2,7.858657241E-1,7.883786763E-1
6.638661875E0,2.298786677E-2,-5.936487392E-2,7.772756815E-1,7.798782696E-1
6.648629875E0,1.872830093E-2,-5.767333508E-2,7.707419991E-1,7.731236590E-1
6.658597875E0,1.783241332E-2,-5.804910511E-2,7.646500468E-1,7.670576169E-1
6.668565875E0,2.245869674E-2,-5.578558519E-2,7.548398972E-1,7.572315993E-1
6.678533875E0,2.518391050E-2,-5.055673420E-2,7.459915280E-1,7.481267089E-1
6.688501875E0,2.983869053E-2,-4.247154295E-2,7.424455881E-1,7.442577717E-1
6.698469875E0,2.938115969E-2,-4.384147376E-2,7.339794040E-1,7.358743730E-1
6.708437875E0,2.465218492E-2,-4.261081666E-2,7.267656326E-1,7.284309828E-1
6.718405875E0,1.996262372E-2,-4.244570062E-2,7.171207070E-1,7.186530820E-1
6.728372875E0,1.906069182E-2,-4.890259728E-2,7.088760138E-1,7.108164157E-1
6.738340875E0,2.026790194E-2,-4.853215069E-2,6.999754310E-1,7.019485462E-1
6.748308875E0,2.356800064E-2,-4.434439167E-2,6.910998821E-1,6.929220178E-1
6.758276875E0,2.079485171E-2,-4.808426648E-2,6.781190634E-1,6.801396817E-1
6.768244875E0,2.139383741E-2,-5.052343011E-2,6.715746522E-1,6.738121598E-1
6.778212875E0,2.004148439E-2,-4.943472892E-2,6.604437232E-1,6.625944197E-1
6.788180875E0,2.051163465E-2,-4.518130422E-2,6.500927210E-1,6.519836066E-1
6.798148875E0,1.878031343E-2,-4.315384105E-2,6.390438080E-1,6.407744866E-1
6.808116875E0,1.517181005E-2,-4.769484699E-2,6.317913532E-1,6.337706969E-1
6.818084875E0,1.962061971E-2,-4.162310809E-2,6.242764592E-1,6.259700866E-1
6.828052875E0,2.072783373E-2,-3.459154442E-2,6.138374805E-1,6.151606868E-1
6.838020875E0,1.979066804E-2,-3.517344221E-2,6.031938791E-1,6.045425522E-1
6.847988875E0,1.874191128E-2,-3.842144459E-2,5.914348364E-1,5.929777672E-1
6.857956875E0,1.737464406E-2,-4.166650772E-2,5.783762932E-1,5.801354261E-1
6.867924875E0,1.899544336E-2,-3.442458808E-2,5.696486235E-1,5.710038821E-1
6.877892875E0,1.737065054E-2,-3.417105600E-2,5.549559593E-1,5.562782733E-1
6.887860875E0,1.535202563E-2,-3.627596051E-2,5.452952385E-1,5.467161303E-1
6.897828875E0,9.791078977E-3,-3.896309063E-2,5.343053937E-1,5.358136256E-1
6.907796875E0,1.543293241E-2,-3.602221981E-2,5.241570473E-1,5.256200015E-1
6.917769792E0,1.594319567E-2,-3.205091134E-2,5.086523890E-1,5.099104816E-1
6.927736792E0,1.545237377E-2,-3.089909628E-2,4.983344972E-1,4.995305808E-1
6.937704792E0,1.624040306E-2,-3.260165453E-2,4.864085913E-1,4.877703724E-1
6.947672792E0,1.553463936E-2,-3.165879101E-2,4.746846259E-1,4.759927500E-1
6.957640792E0,1.493036840E-2,-2.940362506E-2,4.611443281E-1,4.623219446E-1
6.967608792E0,1.280088071E-2,-3.101976588E-2,4.467777610E-1,4.480362219E-1
6.977576792E0,1.155159157E-2,-2.439515293E-2,4.360153973E-1,4.368500766E-1
6.987544792E0,1.013175026E-2,-2.643739060E-2,4.205622077E-1,4.215141261E-1
6.997512792E0,8.580459282E-3,-2.791784145E-2,4.066655636E-1,4.077130250E-1
7.007480792E0,1.141046826E-2,-2.807709202E-2,3.918543458E-1,3.930246178E-1
7.017448792E0,1.213511452E-2,-2.023488283E-2,3.756673932E-1,3.764076272E-1
7.027416792E0,9.379012510E-3,-1.914137602E-2,3.568720520E-1,3.575080693E-1
7.037384792E0,9.226413444E-3,-1.708008908E-2,3.400233090E-1,3.405770204E-1
7.047352792E0,6.397228688E-3,-9.397246875E-3,3.212378621E-1,3.214389473E-1
7.057320792E0,1.052246522E-2,-6.766105071E-5,3.015128970E-1,3.016964599E-1
7.067288792E0,6.910312455E-3,8.144350722E-3,2.783636451E-1,2.785684867E-1
7.077256792E0,8.601153269E-3,2.067452297E-2,2.593430579E-1,2.603079665E-1
7.087224792E0,1.664171554E-2,3.569203243E-2,2.395726889E-1,2.427878522E-1
7.097192792E0,1.897144876E-2,5.227766559E-2,2.160836160E-1,2.231255236E-1
7.107160792E0,2.057227492E-2,6.043599546E-2,1.921247542E-1,2.024540669E-1
7.117128792E0,1.988411322E-2,6.800150126E-2,1.667868942E-1,1.812110654E-1
7.127096792E0,1.947800815E-2,7.790169120E-2,1.383510232E-1,1.599658461E-1
7.137063792E0,2.173823304E-2,7.967002690E-2,1.092698425E-1,1.369662821E-1
7.147031792E0,2.325408161E-2,7.659313828E-2,7.443371415E-2,1.093052558E-1
7.156999792E0,1.697887480E-2,6.779298931E-2,3.916679695E-2,8.011372899E-2
7.166967792E0,1.462732721E-2,4.839627445E-2,2.884719521E-3,5.064069202E-2
7.176935792E0,1.986366929E-3,2.868062444E-2,-2.958267555E-2,4.125116440E-2
7.186903792E0,-7.678828202E-3,4.411460366E-3,-5.495564640E-2,5.566460685E-2
7.196871792E0,-2.161142044E-2,-2.349367365E-2,-8.037125319E-2,8.647857847E-2
7.206839792E0,-2.349979244E-2,-3.270507604E-2,-1.052860171E-1,1.127253637E-1
7.216807792E0,-1.870823279E-2,-3.302438930E-2,-1.203826815E-1,1.262243965E-1
7.226775792E0,-1.442528237E-2,-2.793263830E-2,-1.349130124E-1,1.385274051E-1
7.236743792E0,-6.859508343E-3,-2.332735341E-3,-1.425711960E-1,1.427551765E-1
7.246711792E0,-1.049743593E-2,1.141872071E-2,-1.521276534E-1,1.529163375E-1
7.256679792E0,-5.085626617E-3,1.820179075E-2,-1.583546549E-1,1.594784171E-1
7.266647792E0,-1.351558603E-3,4.029648378E-2,-1.688957512E-1,1.736416082E-1
7.276615792E0,2.114545554E-3,4.794641212E-2,-1.789118946E-1,1.852371338E-1
7.286583792E0,7.327735424E-3,4.325876012E-2,-1.960105002E-1,2.008609773E-1
7.296551792E0,5.051531363E-3,4.962451383E-2,-2.148363739E-1,2.205510778E-1
7.306519792E0,-1.174672740E-3,3.332330659E-2,-2.339227200E-1,2.362872437E-1
7.316487792E0,-1.029866282E-2,9.730095044E-3,-2.582514882E-1,2.586398430E-1
7.326455792E0,-2.549246699E-2,-6.434943527E-3,-2.747615278E-1,2.760166146E-1
7.336422792E0,-2.424664050E-2,-1.657413132E-2,-2.906824350E-1,2.921624196E-1
7.346390792E0,-2.070639841E-2,-1.044050604E-2,-3.015373647E-1,3.024277458E-1
7.356358792E0,-1.613881066E-2,-1.592419110E-3,-3.131921589E-1,3.136117431E-1
7.366326792E0,-9.387169033E-3,1.326852664E-2,-3.238904476E-1,3.242980031E-1
7.376294792E0,-9.212731384E-3,2.790366299E-2,-3.266420066E-1,3.279611095E-1
7.386262792E0,-7.958301343E-3,3.954403475E-2,-3.360935748E-1,3.385054745E-1
7.396230792E0,-1.507592853E-3,4.866456240E-2,-3.439911902E-1,3.474197050E-1
7.406198792E0,-3.327678656E-3,5.193442851E-2,-3.535652459E-1,3.573746513E-1
7.416166792E0,-3.617161419E-4,5.055757239E-2,-3.666711748E-1,3.701404455E-1
7.426134792E0,-4.114935175E-3,4.099773243E-2,-3.780162036E-1,3.802551735E-1
7.436102792E0,-1.173450612E-2,3.098903969E-2,-3.939371109E-1,3.953283022E-1
7.446070792E0,-1.580227166E-2,2.127245255E-2,-4.090736806E-1,4.099310981E-1
7.456038792E0,-2.594065852E-2,4.602928180E-3,-4.213857353E-1,4.222085298E-1
7.466006792E0,-2.219923772E-2,2.014546655E-3,-4.323650301E-1,4.329392380E-1
7.475974792E0,-2.154143713E-2,6.805040874E-3,-4.417540133E-1,4.423312677E-1
7.485942792E0,-1.632954739E-2,2.148141898E-2,-4.455892444E-1,4.464055109E-1
7.495910792E0,-1.645338349E-2,3.278414160E-2,-4.487860799E-1,4.502826438E-1
7.505878792E0,-1.232900284E-2,3.386052325E-2,-4.552413821E-1,4.566653647E-1
7.515846792E0,-8.343849331E-3,4.701387510E-2,-4.626848996E-1,4.651421724E-1
7.525813792E0,-7.206171751E-3,5.412593856E-2,-4.698350728E-1,4.729974014E-1
7.535781792E0,-1.026028488E-2,5.368971080E-2,-4.779430628E-1,4.810586552E-1
7.545749792E0,-1.501999330E-2,4.520106688E-2,-4.898580015E-1,4.921682621E-1
7.555717792E0,-1.463383529E-2,4.074746370E-2,-4.991966486E-1,5.010706526E-1
7.565685792E0,-1.455047913E-2,3.280031309E-2,-5.087056160E-1,5.099695880E-1
7.575653792E0,-2.159187756E-2,2.113699727E-2,-5.216541886E-1,5.225285393E-1
7.585621792E0,-2.495373599E-2,1.373993792E-2,-5.301573277E-1,5.309220912E-1
7.595589792E0,-2.236434445E-2,1.751124114E-2,-5.357360840E-1,5.364885452E-1
7.605557792E0,-1.654294878E-2,2.896812372E-2,-5.424515009E-1,5.434762664E-1
7.615525792E0,-1.929266192E-2,3.491788730E-2,-5.455788374E-1,5.470354042E-1
7.625493792E0,-1.794100180E-2,4.211893678E-2,-5.482391119E-1,5.501472605E-1
7.635461792E0,-1.454813499E-2,4.964423180E-2,-5.524493456E-1,5.548661797E-1
7.645429792E0,-1.382383518E-2,5.227574706E-2,-5.560346246E-1,5.586576374E-1
7.655397792E0,-1.433942281E-2,5.224139243E-2,-5.618354678E-1,5.644412060E-1
7.665365792E0,-1.740448363E-2,4.943319410E-2,-5.699743032E-1,5.723786012E-1
7.675333792E0,-1.248722151E-2,4.870855063E-2,-5.791222453E-1,5.813011514E-1
7.685301792E0,-1.651341282E-2,4.266915098E-2,-5.886494517E-1,5.904248693E-1
7.695269792E0,-1.887004450E-2,3.130491078E-2,-5.977124572E-1,5.988290720E-1
7.705237792E0,-2.485057153E-2,2.725447714E-2,-6.071555614E-1,6.082748007E-1
7.715205792E0,-2.502580732E-2,2.844810486E-2,-6.154103279E-1,6.165755894E-1
7.725172792E0,-2.371196076E-2,3.096361086E-2,-6.199104786E-1,6.211360590E-1
7.735140792E0,-2.109593712E-2,3.967294469E-2,-6.203085780E-1,6.219338494E-1
7.745108792E0,-2.014548704E-2,4.623932764E-2,-6.238294244E-1,6.258650548E-1
7.755076792E0,-1.995560341E-2,4.940263182E-2,-6.263788939E-1,6.286408870E-1
7.765044792E0,-1.833903603E-2,5.213892087E-2,-6.281451583E-1,6.305720634E-1
7.775012792E0,-1.704420708E-2,5.534403771E-2,-6.333056092E-1,6.359476882E-1
7.784980792E0,-1.454941370E-2,5.721271038E-2,-6.362785101E-1,6.390112065E-1
7.794948792E0,-1.449774858E-2,5.561854318E-2,-6.455247402E-1,6.480785425E-1
7.804916792E0,-2.011290751E-2,4.330608621E-2,-6.473188400E-1,6.490775199E-1
7.814884792E0,-2.560621127E-2,3.908257931E-2,-6.548483968E-1,6.565131749E-1
7.824852792E0,-2.403367497E-2,3.498895094E-2,-6.570211649E-1,6.583909593E-1
7.834820792E0,-2.439160459E-2,3.625475243E-2,-6.626801491E-1,6.641192193E-1
7.844788792E0,-2.218434773E-2,3.528127447E-2,-6.621273756E-1,6.634376950E-1
7.854756792E0,-2.243814804E-2,3.946350515E-2,-6.637151837E-1,6.652658746E-1
7.864724792E0,-1.921791025E-2,4.598871246E-2,-6.606294513E-1,6.625070276E-1
7.874692792E0,-1.779657975E-2,4.986014962E-2,-6.624156237E-1,6.645278107E-1
7.884660792E0,-1.738730446E-2,5.463460833E-2,-6.615710258E-1,6.640508121E-1
7.894628792E0,-1.996630989E-2,5.481383950E-2,-6.616783142E-1,6.642449865E-1
7.904596792E0,-1.821874268E-2,5.841895938E-2,-6.659814715E-1,6.687869749E-1
7.914560167E0,-2.231175639E-2,5.476643518E-2,-6.679098606E-1,6.705227504E-1
7.924527167E0,-2.111799084E-2,4.606191069E-2,-6.685198545E-1,6.704375177E-1
7.934495167E0,-1.955578104E-2,4.234387353E-2,-6.752081513E-1,6.768171687E-1
7.944463167E0,-2.036690339E-2,4.083805904E-2,-6.775832176E-1,6.791182332E-1
7.954431167E0,-2.185933851E-2,4.201251268E-2,-6.794021726E-1,6.810508013E-1
7.964399167E0,-2.168764360E-2,4.259391874E-2,-6.843090057E-1,6.859762468E-1
7.974367167E0,-2.004820108E-2,4.190948606E-2,-6.855058670E-1,6.870783282E-1
7.984335167E0,-2.431969717E-2,4.513880238E-2,-6.824573874E-1,6.843807747E-1
7.994303167E0,-2.504913695E-2,4.649914429E-2,-6.821394563E-1,6.841811657E-1
8.004271167E0,-2.357105166E-2,5.148289353E-2,-6.810058355E-1,6.833557133E-1
8.014239167E0,-1.623564027E-2,5.631147325E-2,-6.876485944E-1,6.901414112E-1
8.024207167E0,-1.985645480E-2,5.676434189E-2,-6.860252619E-1,6.886560312E-1
8.034175167E0,-1.641671732E-2,5.676407367E-2,-6.897816658E-1,6.923080349E-1
8.044143167E0,-1.715718210E-2,5.255697295E-2,-6.914163232E-1,6.936231947E-1
8.054111167E0,-1.878330670E-2,5.087571964E-2,-6.959767342E-1,6.980865032E-1
8.064079167E0,-2.328197099E-2,4.567237571E-2,-7.011982799E-1,7.030697289E-1
8.074047167E0,-2.286705002E-2,4.283984005E-2,-7.008004189E-1,7.024808759E-1
8.084015167E0,-2.570771240E-2,3.846480325E-2,-7.050124407E-1,7.065288169E-1
8.093983167E0,-2.378624119E-2,4.128162935E-2,-7.056798339E-1,7.072863537E-1
8.103951167E0,-2.240243554E-2,4.625895992E-2,-7.062132359E-1,7.080811359E-1
8.113918167E0,-2.336570062E-2,4.748294875E-2,-7.093989253E-1,7.113701017E-1
8.123886167E0,-2.415716648E-2,5.262354761E-2,-7.088131309E-1,7.111742831E-1
8.133854167E0,-1.945748553E-2,5.294711888E-2,-7.087982297E-1,7.110393249E-1
8.143822167E0,-1.845616288E-2,5.798912048E-2,-7.097520828E-1,7.123562221E-1
8.153790167E0,-1.885297522E-2,6.126453727E-2,-7.096844316E-1,7.125733440E-1
8.163758167E0,-2.148607001E-2,5.615698174E-2,-7.127095461E-1,7.152413263E-1
8.173726167E0,-1.854008064E-2,5.431247503E-2,-7.191490531E-1,7.214353333E-1
8.183694167E0,-2.230623923E-2,5.118269101E-2,-7.184316516E-1,7.205978588E-1
8.193662167E0,-2.167533711E-2,4.604652151E-2,-7.244818211E-1,7.262671763E-1
8.203630167E0,-2.626273967E-2,4.145591706E-2,-7.267543077E-1,7.284093275E-1
8.213598167E0,-2.603344060E-2,4.023272917E-2,-7.265521884E-1,7.281308227E-1
8.223566167E0,-2.411385626E-2,4.570218176E-2,-7.291522622E-1,7.309809772E-1
8.233534167E0,-2.209038660E-2,4.791127518E-2,-7.286049724E-1,7.305126154E-1
8.243502167E0,-1.822859794E-2,5.234616622E-2,-7.291275263E-1,7.312313946E-1
8.253470167E0,-2.412856370E-2,5.169289559E-2,-7.271708846E-1,7.294051264E-1
8.263438167E0,-2.590515465E-2,5.242713913E-2,-7.319177985E-1,7.342501929E-1
8.273406167E0,-2.079188637E-2,5.705438182E-2,-7.302770615E-1,7.327974424E-1
8.283374167E0,-1.766435429E-2,6.191255525E-2,-7.326171398E-1,7.354407301E-1
8.293342167E0,-1.837461814E-2,5.928215012E-2,-7.359026670E-1,7.385152235E-1
8.303310167E0,-2.293506637E-2,5.400026217E-2,-7.373897433E-1,7.397200005E-1
8.313277167E0,-1.822499931E-2,5.127132311E-2,-7.407285571E-1,7.427245078E-1
8.323245167E0,-1.992665045E-2,5.256626382E-2,-7.461565733E-1,7.482712846E-1
8.333213167E0,-2.225984633E-2,5.189088359E-2,-7.475376725E-1,7.496670837E-1
8.343181167E0,-2.426443622E-2,4.828640074E-2,-7.524914145E-1,7.544293660E-1
8.353149167E0,-2.222631872E-2,4.910958558E-2,-7.547782660E-1,7.567007278E-1
8.363117167E0,-2.346210927E-2,5.059246719E-2,-7.563569546E-1,7.584101206E-1
8.373085167E0,-2.412124164E-2,5.593556911E-2,-7.601732612E-1,7.626099981E-1
8.383053167E0,-2.598518319E-2,5.622746423E-2,-7.619118690E-1,7.644255711E-1
8.393021167E0,-2.327595092E-2,5.167292804E-2,-7.665939927E-1,7.686860289E-1
8.402989167E0,-2.234448493E-2,5.816560239E-2,-7.674409151E-1,7.699662794E-1
8.412957167E0,-1.887545176E-2,6.324078888E-2,-7.692528963E-1,7.720788163E-1
8.422925167E0,-1.998401806E-2,6.129596382E-2,-7.738593817E-1,7.765403394E-1
8.432893167E0,-2.522165701E-2,5.503727123E-2,-7.765588164E-1,7.789151614E-1
8.442861167E0,-2.787573822E-2,4.701920226E-2,-7.765749693E-1,7.784963360E-1
8.452829167E0,-2.286100574E-2,5.061952770E-2,-7.815428376E-1,7.835139879E-1
8.462797167E0,-2.457925119E-2,5.459978431E-2,-7.829378247E-1,7.852241167E-1
8.472765167E0,-2.692123502E-2,5.214008689E-2,-7.861400247E-1,7.883270133E-1
8.482733167E0,-2.381628193E-2,5.033323914E-2,-7.908244729E-1,7.927824400E-1
8.492701167E0,-2.374570817E-2,5.332423374E-2,-7.876307964E-1,7.897908610E-1
8.502668167E0,-2.116246894E-2,5.607058853E-2,-7.888706923E-1,7.911439377E-1
8.512636167E0,-2.083809674E-2,5.963176489E-2,-7.925295830E-1,7.950429633E-1
8.522604167E0,-2.156636305E-2,5.592394993E-2,-7.916626334E-1,7.939284107E-1
8.532572167E0,-2.234853432E-2,5.671970174E-2,-7.965722084E-1,7.989016615E-1
8.542540167E0,-2.366418019E-2,5.826085806E-2,-7.957808375E-1,7.982615251E-1
8.552508167E0,-2.395526320E-2,5.903823674E-2,-7.970530391E-1,7.995954697E-1
8.562476167E0,-2.357031219E-2,5.850744620E-2,-8.005509377E-1,8.030320571E-1
8.572444167E0,-2.234099619E-2,5.588183552E-2,-8.050977588E-1,8.073439792E-1
8.582412167E0,-2.443682589E-2,5.460452288E-2,-8.068171740E-1,8.090319923E-1
8.592380167E0,-2.406371757E-2,5.412141979E-2,-8.062108159E-1,8.083836158E-1
8.602348167E0,-2.380346321E-2,5.497638136E-2,-8.090322018E-1,8.112472563E-1
8.612316167E0,-2.381731197E-2,5.312069133E-2,-8.116482496E-1,8.137333429E-1
8.622284167E0,-2.675007097E-2,5.746514350E-2,-8.131811023E-1,8.156477880E-1
8.632252167E0,-2.497534081E-2,5.666432902E-2,-8.163425326E-1,8.186878187E-1
8.642220167E0,-2.574839815E-2,5.733125284E-2,-8.149086237E-1,8.173285248E-1
8.652188167E0,-2.774470299E-2,5.971451476E-2,-8.170732856E-1,8.197221150E-1
8.662156167E0,-2.518210746E-2,6.239615008E-2,-8.183826804E-1,8.211440980E-1
8.672124167E0,-2.703433484E-2,5.917185917E-2,-8.173022270E-1,8.198872450E-1
8.682092167E0,-2.565114759E-2,6.171590835E-2,-8.213289380E-1,8.240437240E-1
8.692059167E0,-2.480532788E-2,6.444245577E-2,-8.255636692E-1,8.284464414E-1
8.702027167E0,-2.062637173E-2,6.153834239E-2,-8.277297616E-1,8.302704216E-1
8.711995167E0,-2.436784655E-2,6.128800288E-2,-8.282855749E-1,8.309073383E-1
8.721963167E0,-2.496327832E-2,5.639182404E-2,-8.281095624E-1,8.304027038E-1
8.731931167E0,-2.428071015E-2,5.348578468E-2,-8.277846575E-1,8.298660863E-1
8.741899167E0,-2.656122670E-2,5.204124004E-2,-8.231883049E-1,8.252592167E-1
8.751867167E0,-3.125717863E-2,5.179676414E-2,-8.194449544E-1,8.216750874E-1
8.761835167E0,-2.822514437E-2,4.909671843E-2,-8.175369501E-1,8.194960716E-1
8.771803167E0,-2.658596821E-2,5.746277422E-2,-8.104752898E-1,8.129446350E-1
8.781771167E0,-2.279591933E-2,5.565939099E-2,-8.076336384E-1,8.098701844E-1
8.791739167E0,-2.343774028E-2,5.572410673E-2,-8.048881888E-1,8.071551897E-1
8.801707167E0,-2.073047683E-2,6.242319196E-2,-8.012829423E-1,8.039780850E-1
8.811675167E0,-2.056456171E-2,6.407381594E-2,-8.002230525E-1,8.030475010E-1
8.821643167E0,-1.841320843E-2,6.300647557E-2,-7.990870476E-1,8.017786302E-1
8.831611167E0,-1.911255345E-2,5.773608387E-2,-7.971016765E-1,7.994184309E-1
8.841579167E0,-2.270259894E-2,5.642248690E-2,-8.013687730E-1,8.036733263E-1
8.851547167E0,-2.433245443E-2,5.039708689E-2,-8.030990362E-1,8.050465804E-1
8.861515167E0,-2.721386217E-2,5.327171832E-2,-8.016822934E-1,8.039110460E-1
8.871483167E0,-2.858485840E-2,4.965674877E-2,-8.036956787E-1,8.057354596E-1
8.881450167E0,-2.658988349E-2,5.058006197E-2,-8.028333187E-1,8.048643999E-1
8.891418167E0,-2.948021330E-2,5.191536993E-2,-8.042850494E-1,8.064978173E-1
8.901386167E0,-2.739639394E-2,5.071019381E-2,-8.027951121E-1,8.048615274E-1
8.911354167E0,-2.803288773E-2,5.942538753E-2,-8.036676049E-1,8.063490799E-1
8.921322625E0,-2.400648408E-2,6.086173654E-2,-8.048909307E-1,8.075455854E-1
8.931290625E0,-1.703166403E-2,6.640537083E-2,-8.042454123E-1,8.071619628E-1
8.941258625E0,-1.673706621E-2,6.312093884E-2,-8.053150177E-1,8.079583282E-1
8.951226625E0,-2.376941033E-2,6.194861233E-2,-8.045083284E-1,8.072399061E-1
8.961194625E0,-2.788460441E-2,5.625963211E-2,-8.046674728E-1,8.071136470E-1
8.971162625E0,-3.011846356E-2,5.030800030E-2,-8.067780137E-1,8.089059155E-1
8.981130625E0,-2.998743206E-2,5.113732070E-2,-8.066822290E-1,8.088575216E-1
8.991098625E0,-2.654529735E-2,5.233627558E-2,-8.098385930E-1,8.119619974E-1
9.001066625E0,-2.109487727E-2,5.351256952E-2,-8.094893098E-1,8.115303639E-1
9.011034625E0,-2.094467543E-2,5.614883080E-2,-8.072474599E-1,8.094688580E-1
9.021002625E0,-2.127011120E-2,5.561567843E-2,-8.058152795E-1,8.080122437E-1
9.030970625E0,-2.468135394E-2,5.441645905E-2,-8.045787811E-1,8.067944814E-1
9.040938625E0,-2.453967370E-2,5.556134880E-2,-8.068976402E-1,8.091804872E-1
9.050906625E0,-2.362194844E-2,6.381901354E-2,-8.080978990E-1,8.109581230E-1
9.060874625E0,-2.011957206E-2,6.502068788E-2,-8.095664978E-1,8.124225510E-1
9.070842625E0,-2.374413423E-2,5.995056406E-2,-8.069347739E-1,8.095070002E-1
9.080809625E0,-2.262073196E-2,6.230954081E-2,-8.111179471E-1,8.138221553E-1
9.090777625E0,-2.406949177E-2,5.549824238E-2,-8.136828542E-1,8.159284175E-1
9.100745625E0,-2.426771075E-2,5.602639541E-2,-8.164060116E-1,8.186859315E-1
9.110713625E0,-2.438861877E-2,5.448202789E-2,-8.166355491E-1,8.188142134E-1
9.120681625E0,-2.348501235E-2,5.396616459E-2,-8.201670647E-1,8.222760526E-1
9.130649625E0,-2.474628575E-2,5.473208427E-2,-8.224299550E-1,8.246205252E-1
9.140617625E0,-2.295341529E-2,5.645692348E-2,-8.255888820E-1,8.278352768E-1
9.150585625E0,-2.305115387E-2,5.454504117E-2,-8.292406201E-1,8.313522258E-1
9.160553625E0,-2.074416541E-2,6.447319686E-2,-8.347315788E-1,8.374747293E-1
9.170521625E0,-1.987863705E-2,6.193706021E-2,-8.374495506E-1,8.399720885E-1
9.180489625E0,-2.217986993E-2,6.241724640E-2,-8.422798514E-1,8.448805877E-1
9.190457625E0,-2.577327192E-2,6.142655015E-2,-8.482676744E-1,8.508792688E-1
9.200425625E0,-2.600635588E-2,6.219002232E-2,-8.520562053E-1,8.547184954E-1
9.210393625E0,-2.511579357E-2,5.804641172E-2,-8.556269407E-1,8.579613340E-1
9.220361625E0,-2.788191661E-2,6.028301641E-2,-8.596156240E-1,8.621777452E-1
9.230329625E0,-2.850482985E-2,5.489757285E-2,-8.646519184E-1,8.668617011E-1
9.240297625E0,-2.731381170E-2,5.718981475E-2,-8.667325377E-1,8.690466105E-1
9.250265625E0,-2.642271668E-2,5.737383664E-2,-8.679376245E-1,8.702330935E-1
9.260233625E0,-2.936947905E-2,5.757585540E-2,-8.717080355E-1,8.741009350E-1
9.270201625E0,-2.397657745E-2,5.814736709E-2,-8.705160022E-1,8.727852557E-1
9.280168625E0,-2.183589898E-2,6.099500507E-2,-8.767467737E-1,8.791371351E-1
9.290136625E0,-2.024119906E-2,6.721028686E-2,-8.736359477E-1,8.764511954E-1
9.300104625E0,-2.365318872E-2,6.423795223E-2,-8.775402308E-1,8.802061375E-1
9.310072625E0,-2.645270340E-2,6.060167402E-2,-8.795740604E-1,8.820560278E-1
9.320040625E0,-2.927583642E-2,5.531928316E-2,-8.803330064E-1,8.825550973E-1
9.330008625E0,-2.833174542E-2,5.814756081E-2,-8.796522617E-1,8.820271698E-1
9.339976625E0,-2.412152663E-2,6.155949831E-2,-8.817070127E-1,8.841824902E-1
9.349944625E0,-2.561316267E-2,6.271104515E-2,-8.826971650E-1,8.852926038E-1
9.359912625E0,-2.620271035E-2,6.185504422E-2,-8.853425980E-1,8.878874615E-1
9.369880625E0,-2.991569042E-2,5.882729962E-2,-8.823891282E-1,8.848537581E-1
9.379848625E0,-2.557399124E-2,6.240652874E-2,-8.861238360E-1,8.886867033E-1
9.389816625E0,-2.679212205E-2,6.323423982E-2,-8.854069114E-1,8.880663182E-1
9.399784625E0,-2.561346069E-2,6.476230174E-2,-8.874081373E-1,8.901367352E-1
9.409752625E0,-2.416150458E-2,6.336574256E-2,-8.891741037E-1,8.917564591E-1
9.419720625E0,-2.685518004E-2,6.262817234E-2,-8.895078897E-1,8.921142161E-1
9.429688625E0,-2.407057770E-2,6.546124816E-2,-8.899211884E-1,8.926501494E-1
9.439656625E0,-2.045958117E-2,6.926197559E-2,-8.921597004E-1,8.950780674E-1
9.449624625E0,-2.513289638E-2,6.616312265E-2,-8.951044083E-1,8.978981696E-1
9.459592625E0,-2.419561706E-2,5.908456445E-2,-8.953297734E-1,8.976033739E-1
9.469559625E0,-2.818476595E-2,6.139645725E-2,-8.963941932E-1,8.989362912E-1
9.479527625E0,-2.608974278E-2,6.128171086E-2,-9.023258090E-1,9.047806300E-1
9.489495625E0,-2.763757110E-2,6.218878180E-2,-9.008805156E-1,9.034472775E-1
9.499463625E0,-2.574834973E-2,6.177344173E-2,-9.019088745E-1,9.043884970E-1
9.509431625E0,-2.736515366E-2,5.975716561E-2,-9.034559131E-1,9.058434508E-1
9.519399625E0,-2.460228838E-2,6.408329308E-2,-9.033027887E-1,9.059072078E-1
9.529367625E0,-2.598100714E-2,6.564017385E-2,-9.050031900E-1,9.077523997E-1
9.539335625E0,-2.488822863E-2,6.342438608E-2,-9.052346945E-1,9.077950918E-1
9.549303625E0,-2.435000241E-2,6.779676676E-2,-9.073183537E-1,9.101735654E-1
9.559271625E0,-2.435514517E-2,6.533762813E-2,-9.071160555E-1,9.097921284E-1
9.569239625E0,-2.934777364E-2,6.041051820E-2,-9.056143761E-1,9.081013824E-1
9.579207625E0,-3.575358167E-2,5.624844134E-2,-9.072127342E-1,9.096577108E-1
9.589175625E0,-3.083632328E-2,5.906020850E-2,-9.056805968E-1,9.081279263E-1
9.599143625E0,-2.537159249E-2,6.267178059E-2,-9.059726596E-1,9.084921187E-1
9.609111625E0,-2.307381667E-2,6.692085415E-2,-9.056477547E-1,9.084099610E-1
9.619079625E0,-2.078573592E-2,7.272723317E-2,-9.056861401E-1,9.088391946E-1
9.629047625E0,-2.229228616E-2,7.464390993E-2,-9.079159498E-1,9.112519033E-1
9.639015625E0,-2.631161176E-2,6.804943830E-2,-9.094015360E-1,9.123235066E-1
9.648983625E0,-2.805305272E-2,6.075051427E-2,-9.087088704E-1,9.111692543E-1
9.658950625E0,-2.883324400E-2,6.286172569E-2,-9.117995501E-1,9.144185978E-1
9.668918625E0,-2.342729457E-2,6.897155195E-2,-9.114373326E-1,9.143434390E-1
9.678886625E0,-2.416187897E-2,6.960674375E-2,-9.093019366E-1,9.122822519E-1
9.688854625E0,-2.953001298E-2,5.987448618E-2,-9.140905738E-1,9.165252603E-1
9.698822625E0,-2.836878970E-2,6.111922115E-2,-9.136525989E-1,9.161339524E-1
9.708790625E0,-3.042741306E-2,5.630715564E-2,-9.104785919E-1,9.127253637E-1
9.718758625E0,-3.045439348E-2,5.719962716E-2,-9.081295133E-1,9.104386197E-1
9.728726625E0,-2.697257698E-2,6.077146530E-2,-9.072266817E-1,9.096597951E-1
9.738694625E0,-2.117215656E-2,6.596494466E-2,-9.048826694E-1,9.075308698E-1
9.748662625E0,-2.126403712E-2,6.797163934E-2,-9.031047821E-1,9.059086877E-1
9.758630625E0,-2.004218288E-2,6.454732269E-2,-8.993098736E-1,9.018460482E-1
9.768598625E0,-2.705215663E-2,6.258297712E-2,-8.984957337E-1,9.010788155E-1
9.778566625E0,-2.807710133E-2,6.422092766E-2,-8.963321447E-1,8.990683872E-1
9.788534625E0,-2.475667186E-2,6.114124507E-2,-8.957084417E-1,8.981340419E-1
9.798502625E0,-2.409844287E-2,6.559289247E-2,-8.942332268E-1,8.969594341E-1
9.808470625E0,-2.073407173E-2,6.866724789E-2,-8.919428587E-1,8.948224158E-1
9.818438625E0,-2.414449118E-2,6.460233778E-2,-8.920165896E-1,8.946787215E-1
9.828406625E0,-2.603480220E-2,5.664082244E-2,-8.898767233E-1,8.920574961E-1
9.838374625E0,-3.312958777E-2,5.722995102E-2,-8.896173239E-1,8.920716450E-1
9.848341625E0,-2.788528986E-2,6.148701161E-2,-8.853732944E-1,8.879437552E-1
9.858309625E0,-3.061804920E-2,6.436644495E-2,-8.839273453E-1,8.867965132E-1
9.868277625E0,-2.745554596E-2,6.404926628E-2,-8.803078532E-1,8.830617373E-1
9.878245625E0,-2.322492562E-2,6.313212961E-2,-8.797458410E-1,8.823138941E-1
9.888213625E0,-2.866762877E-2,6.887310743E-2,-8.783663511E-1,8.815286635E-1
9.898181625E0,-2.764132805E-2,5.995449424E-2,-8.757298589E-1,8.782148770E-1
9.908149625E0,-2.339145541E-2,6.184001267E-2,-8.733450174E-1,8.758440882E-1
9.918116875E0,-2.318403870E-2,6.491620094E-2,-8.707649708E-1,8.734891225E-1
9.928084875E0,-2.395102940E-2,6.224745139E-2,-8.694656491E-1,8.720200181E-1
9.938052875E0,-2.682765014E-2,6.028361619E-2,-8.686274290E-1,8.711299832E-1
9.948020875E0,-2.763059363E-2,5.836400390E-2,-8.675813675E-1,8.699811698E-1
9.957988875E0,-3.007398918E-2,5.353495106E-2,-8.644556999E-1,8.666337709E-1
9.967956875E0,-2.508855239E-2,5.552086979E-2,-8.607068062E-1,8.628604804E-1
9.977924875E0,-2.239694819E-2,5.847026408E-2,-8.588405848E-1,8.611199365E-1
9.987892875E0,-2.436156198E-2,6.242746115E-2,-8.595987558E-1,8.622068746E-1
9.997860875E0,-3.487298265E-2,5.864917114E-2,-8.568829298E-1,8.595953732E-1
1.000782888E1,-3.075999394E-2,4.221133888E-2,-8.572011590E-1,8.587908950E-1
1.001779688E1,-1.264389418E-2,5.945340171E-2,-8.574384451E-1,8.595901710E-1
1.002776488E1,-6.299179047E-3,9.093143791E-2,-8.624145985E-1,8.672180497E-1
1.003773187E1,-8.059501648E-3,8.653604239E-2,-8.665015697E-1,8.708492479E-1
1.004769987E1,-2.117024362E-2,6.655354798E-2,-8.739871383E-1,8.767731017E-1
1.005766787E1,-3.174376115E-2,6.241437048E-2,-8.740538955E-1,8.768542822E-1
1.006763587E1,-4.084138572E-2,5.887183547E-2,-8.769556284E-1,8.798778813E-1
1.007760387E1,-4.743859917E-2,4.045563564E-2,-8.819367290E-1,8.841377003E-1
1.008757187E1,-4.064407572E-2,3.524941951E-2,-8.828703761E-1,8.845080912E-1
1.009753987E1,-2.268957905E-2,5.105260760E-2,-8.804822564E-1,8.822529057E-1
1.010750788E1,-1.711451635E-2,6.730428338E-2,-8.839105368E-1,8.866344287E-1
1.011747588E1,-1.203445718E-2,6.495745480E-2,-8.784219623E-1,8.809026296E-1
1.012744388E1,-1.880501211E-2,5.856507272E-2,-8.795327544E-1,8.816809867E-1
1.013741188E1,-3.170786425E-2,6.334774196E-2,-8.781482577E-1,8.810009578E-1
1.014737988E1,-3.815457970E-2,6.170510128E-2,-8.828298450E-1,8.858057499E-1
1.015734788E1,-3.047559597E-2,6.496948749E-2,-8.834372759E-1,8.863471197E-1
1.016731588E1,-1.525776088E-2,8.338471502E-2,-8.902158141E-1,8.942426995E-1
1.017728388E1,-1.070274226E-2,8.785023540E-2,-8.959720135E-1,9.003321951E-1
1.018725188E1,-2.396208793E-2,7.102172077E-2,-9.008226991E-1,9.039357287E-1
1.019721988E1,-3.445142880E-2,4.933541268E-2,-9.058524370E-1,9.078488429E-1
1.020718787E1,-3.872819617E-2,3.929210082E-2,-9.112852812E-1,9.129537809E-1
1.021715587E1,-3.872023523E-2,4.553516582E-2,-9.163385630E-1,9.182859413E-1
1.022712287E1,-2.536395006E-2,5.112140998E-2,-9.185078144E-1,9.202789434E-1
1.023709087E1,-1.746645384E-2,5.921146274E-2,-9.223390818E-1,9.244027564E-1
1.024705887E1,-1.517240610E-2,7.675264031E-2,-9.285184145E-1,9.318087871E-1
1.025702688E1,-2.516048588E-2,7.622945309E-2,-9.280465841E-1,9.315119118E-1
1.026699488E1,-3.955699876E-2,6.316664815E-2,-9.282031655E-1,9.311905810E-1
1.027696288E1,-3.632594272E-2,6.615348905E-2,-9.328295588E-1,9.358775797E-1
1.028693088E1,-2.620486915E-2,7.236771286E-2,-9.392411709E-1,9.423893877E-1
1.029689888E1,-1.869834028E-2,8.313995600E-2,-9.428805113E-1,9.467235810E-1
1.030686688E1,-1.613344997E-2,7.809140533E-2,-9.490446448E-1,9.523887303E-1
1.031683488E1,-2.757932805E-2,6.910426170E-2,-9.551069140E-1,9.580006449E-1
1.032680288E1,-3.529477492E-2,5.950596184E-2,-9.594573975E-1,9.619486359E-1
1.033677088E1,-3.485577926E-2,4.739453644E-2,-9.616062045E-1,9.634042038E-1
1.034673887E1,-3.008073010E-2,5.117676035E-2,-9.644874930E-1,9.663125971E-1
1.035670687E1,-2.539564297E-2,6.578932703E-2,-9.666262269E-1,9.691952521E-1
1.036667487E1,-2.905136347E-2,7.208344340E-2,-9.683460593E-1,9.714597754E-1
1.037664287E1,-3.814752400E-2,6.771716475E-2,-9.663229585E-1,9.694436075E-1
1.038661087E1,-3.522550315E-2,6.067550555E-2,-9.663123488E-1,9.688559793E-1
1.039657887E1,-3.127798066E-2,6.954469532E-2,-9.652261734E-1,9.682336198E-1
1.040654687E1,-2.166476846E-2,7.852967083E-2,-9.637454748E-1,9.671823053E-1
1.041651388E1,-2.061361633E-2,8.110842109E-2,-9.643013477E-1,9.679259199E-1
1.042648188E1,-2.529891580E-2,7.554400712E-2,-9.664870501E-1,9.697649973E-1
1.043644988E1,-2.765434608E-2,6.919903308E-2,-9.677989483E-1,9.706637283E-1
1.044641788E1,-2.564871870E-2,6.580670178E-2,-9.688109756E-1,9.713820490E-1
1.045638588E1,-2.600473538E-2,6.542456895E-2,-9.684562087E-1,9.710118684E-1
1.046635388E1,-2.971957810E-2,6.740755588E-2,-9.689906836E-1,9.717870017E-1
1.047632188E1,-3.517812490E-2,6.266260147E-2,-9.691008925E-1,9.717616179E-1
1.048628987E1,-3.886287659E-2,5.919755995E-2,-9.667804837E-1,9.693705060E-1
1.049625787E1,-3.454051167E-2,5.910547078E-2,-9.686077833E-1,9.710239655E-1
1.050622587E1,-3.060808778E-2,6.481608748E-2,-9.668437243E-1,9.694971724E-1
1.051619387E1,-2.428728528E-2,6.961917877E-2,-9.650011063E-1,9.678139477E-1
1.052616187E1,-2.512298524E-2,7.073424757E-2,-9.610726833E-1,9.639995855E-1
1.053612987E1,-2.251245268E-2,7.010608912E-2,-9.595302343E-1,9.623512586E-1
1.054609787E1,-2.714555338E-2,7.481855154E-2,-9.606370330E-1,9.639285274E-1
1.055606587E1,-2.546560578E-2,6.951954961E-2,-9.602165818E-1,9.630666378E-1
1.056603387E1,-2.721636742E-2,6.937148422E-2,-9.603758454E-1,9.632626319E-1
1.057600187E1,-2.604126930E-2,7.149308175E-2,-9.593250751E-1,9.623377828E-1
1.058596988E1,-2.770814113E-2,7.292186469E-2,-9.635320306E-1,9.666847022E-1
1.059593788E1,-3.277379274E-2,6.443405151E-2,-9.637596011E-1,9.664669871E-1
1.060590488E1,-3.368832171E-2,5.867097154E-2,-9.650059938E-1,9.673746710E-1
1.061587288E1,-2.975725383E-2,6.559477001E-2,-9.677674174E-1,9.704441984E-1
1.062584087E1,-2.831728198E-2,6.450553983E-2,-9.689634442E-1,9.715209670E-1
1.063580887E1,-2.674415894E-2,6.596094370E-2,-9.641789794E-1,9.668025654E-1
1.064577687E1,-2.912928537E-2,6.098030508E-2,-9.694589972E-1,9.718116382E-1
1.065574487E1,-2.266318724E-2,6.572812051E-2,-9.664992094E-1,9.689966603E-1
1.066571287E1,-2.480729856E-2,7.317458838E-2,-9.678193331E-1,9.708986476E-1
1.067568087E1,-2.468401752E-2,6.971365213E-2,-9.647991061E-1,9.676293759E-1
1.068564887E1,-2.795544453E-2,6.781082600E-2,-9.647485018E-1,9.675326799E-1
1.069561687E1,-3.074137866E-2,6.351833045E-2,-9.641217589E-1,9.667007690E-1
1.070558487E1,-2.698099613E-2,6.525684148E-2,-9.604375362E-1,9.630299531E-1
1.071555287E1,-3.008501604E-2,6.891140342E-2,-9.597928524E-1,9.627337167E-1
1.072552088E1,-3.353301063E-2,5.663209409E-2,-9.569733739E-1,9.592339106E-1
1.073548888E1,-2.516192384E-2,6.024318188E-2,-9.549815655E-1,9.572106110E-1
1.074545688E1,-2.614409849E-2,7.364181429E-2,-9.514528513E-1,9.546565660E-1
1.075542488E1,-2.759637125E-2,6.115820259E-2,-9.475470185E-1,9.499195954E-1
1.076539288E1,-2.975459583E-2,6.060958654E-2,-9.433959723E-1,9.458090814E-1
1.077536088E1,-3.365524858E-2,6.406338513E-2,-9.413957596E-1,9.441730611E-1
1.078532888E1,-2.652756497E-2,6.987706572E-2,-9.414117336E-1,9.443741675E-1
1.079529688E1,-2.635315619E-2,7.010033727E-2,-9.381823540E-1,9.411666566E-1
1.080526387E1,-2.667380124E-2,6.463260204E-2,-9.356230497E-1,9.382320375E-1
1.081523187E1,-2.599559911E-2,7.761488110E-2,-9.351794720E-1,9.387547527E-1
1.082519987E1,-3.289185464E-2,7.011488825E-2,-9.392610192E-1,9.424485312E-1
1.083516787E1,-2.708927728E-2,6.374349445E-2,-9.387038350E-1,9.412555189E-1
1.084513587E1,-2.520855144E-2,7.332395017E-2,-9.417384863E-1,9.449249967E-1
1.085510387E1,-2.374059521E-2,6.876581907E-2,-9.454947710E-1,9.482893629E-1
1.086507188E1,-2.730150893E-2,6.242669374E-2,-9.489153028E-1,9.513583532E-1
1.087503988E1,-2.999923192E-2,6.490138918E-2,-9.498293400E-1,9.525166242E-1
1.088500788E1,-2.830306627E-2,5.856679007E-2,-9.486362934E-1,9.508637913E-1
1.089497588E1,-3.084321693E-2,6.502691656E-2,-9.522380233E-1,9.549539554E-1
1.090494388E1,-3.225309402E-2,5.698470026E-2,-9.526311159E-1,9.548788201E-1
1.091491217E1,-2.481794916E-2,6.128464639E-2,-9.514436126E-1,9.537382693E-1
1.092488017E1,-3.140474483E-2,7.303238660E-2,-9.511792064E-1,9.544956103E-1
1.093484817E1,-2.912617102E-2,6.362060457E-2,-9.476568699E-1,9.502365275E-1
1.094481617E1,-2.697939612E-2,6.129033864E-2,-9.436461329E-1,9.460192480E-1
1.095478417E1,-2.757740766E-2,6.925293058E-2,-9.417960644E-1,9.447413978E-1
1.096475217E1,-2.033041418E-2,7.337843627E-2,-9.380998611E-1,9.411849288E-1
1.097472017E1,-2.154023759E-2,6.860769540E-2,-9.321860671E-1,9.349555398E-1
1.098468717E1,-2.374853194E-2,6.018438563E-2,-9.290390015E-1,9.312892243E-1
1.099465517E1,-2.395719104E-2,6.287762523E-2,-9.264280200E-1,9.288683540E-1
1.100462317E1,-2.748401463E-2,6.556741893E-2,-9.233496785E-1,9.260826563E-1
1.101459117E1,-2.964897081E-2,6.009603292E-2,-9.179112315E-1,9.203540751E-1
1.102455917E1,-3.048520349E-2,6.010029465E-2,-9.133308530E-1,9.158136492E-1
1.103452717E1,-2.985220402E-2,6.589914113E-2,-9.077534080E-1,9.106317041E-1
1.104449517E1,-3.052172251E-2,6.007081270E-2,-9.015581012E-1,9.040725015E-1
1.105446317E1,-3.415342048E-2,5.076446384E-2,-8.970949054E-1,8.991789345E-1
1.106443117E1,-2.278012410E-2,6.151484698E-2,-8.899554610E-1,8.923697289E-1
1.107439917E1,-1.690148935E-2,6.505536288E-2,-8.826673627E-1,8.852228724E-1
1.108436717E1,-1.783546060E-2,6.731505692E-2,-8.769943118E-1,8.797547633E-1
1.109433517E1,-1.806888729E-2,6.823809445E-2,-8.745085001E-1,8.773528589E-1
1.110430317E1,-2.393583208E-2,6.298793852E-2,-8.691744208E-1,8.717824145E-1
1.111427117E1,-3.013015538E-2,6.153178960E-2,-8.646541238E-1,8.673642494E-1
1.112423917E1,-2.972136065E-2,5.874159187E-2,-8.589267731E-1,8.614459562E-1
1.113420717E1,-3.717315197E-2,5.564378947E-2,-8.536834121E-1,8.563021912E-1
1.114417517E1,-2.883612737E-2,5.696764961E-2,-8.481794596E-1,8.505793502E-1
1.115414317E1,-2.873207256E-2,5.018039048E-2,-8.442965746E-1,8.462743701E-1
1.116411117E1,-1.790605672E-2,5.862900615E-2,-8.402054310E-1,8.424388129E-1
1.117407817E1,-1.132706832E-2,7.350625843E-2,-8.360317349E-1,8.393333869E-1
1.118404617E1,-2.300076932E-2,5.441991240E-2,-8.290188313E-1,8.311214020E-1
1.119401417E1,-2.081881277E-2,5.614846945E-2,-8.267818093E-1,8.289476665E-1
1.120398217E1,-2.271631546E-2,6.906773150E-2,-8.243181109E-1,8.275184170E-1
1.121395017E1,-2.918609232E-2,3.982473165E-2,-8.172013760E-1,8.186915940E-1
1.122391817E1,-3.488792107E-2,2.476668730E-2,-8.099999428E-1,8.111291285E-1
1.123388617E1,-1.817250252E-2,6.245650724E-2,-8.063915968E-1,8.090107926E-1
1.124385417E1,-9.022681043E-3,8.166961372E-2,-8.026445508E-1,8.068392712E-1
1.125382217E1,-3.049117327E-2,5.545776337E-2,-7.949507236E-1,7.974659417E-1
1.126379017E1,-4.633884504E-2,4.543735087E-2,-7.876771092E-1,7.903461709E-1
1.127375817E1,-3.116559237E-2,6.267055869E-2,-7.838775516E-1,7.869961302E-1
1.128372617E1,-3.031391464E-2,6.566315144E-2,-7.812388539E-1,7.845793330E-1
1.129369417E1,-3.224576637E-2,5.795864016E-2,-7.773731351E-1,7.801974010E-1
1.130366217E1,-2.398304269E-2,5.084719881E-2,-7.724756002E-1,7.745186744E-1
1.131363017E1,-5.941484589E-3,6.926092505E-2,-7.706767917E-1,7.738055920E-1
1.132359817E1,4.525004886E-3,8.918004483E-2,-7.774699926E-1,7.825810792E-1
1.133356617E1,-1.755172759E-2,5.821990967E-2,-7.829552293E-1,7.853130026E-1
1.134353417E1,-3.328621760E-2,3.044713475E-2,-7.809786797E-1,7.822804474E-1
1.135350117E1,-2.981417254E-2,3.350332752E-2,-7.873795033E-1,7.886557170E-1
1.136346917E1,-1.840652153E-2,6.190807000E-2,-7.992284298E-1,8.018338308E-1
1.137343717E1,-1.960321516E-2,6.965175271E-2,-8.078621030E-1,8.110960671E-1
1.138340517E1,-3.157785162E-2,4.816723242E-2,-8.131724596E-1,8.152096001E-1
1.139337317E1,-3.386196494E-2,4.564011097E-2,-8.197184801E-1,8.216860952E-1
1.140334117E1,-2.786133066E-2,7.221605629E-2,-8.293266296E-1,8.329310122E-1
1.141330917E1,-3.041961417E-2,7.042024285E-2,-8.396822810E-1,8.431789232E-1
1.142327717E1,-2.713966370E-2,5.683333054E-2,-8.467998505E-1,8.491387257E-1
1.143324517E1,-2.114765719E-2,5.811581016E-2,-8.516823053E-1,8.539247157E-1
1.144321317E1,-1.375844982E-2,8.672481775E-2,-8.655337095E-1,8.699764889E-1
1.145318117E1,-1.275984943E-2,9.895675629E-2,-8.814730048E-1,8.871019736E-1
1.146314917E1,-2.735423855E-2,5.768814683E-2,-8.927900791E-1,8.950699984E-1
1.147311717E1,-3.544979542E-2,5.894069001E-2,-9.047166705E-1,9.073273648E-1
1.148308517E1,-2.058882080E-2,8.846316487E-2,-9.172668457E-1,9.217527311E-1
1.149305317E1,-2.372152545E-2,8.094250411E-2,-9.350558519E-1,9.388524091E-1
1.150302117E1,-4.105923697E-2,5.498068035E-2,-9.451394081E-1,9.476271613E-1
1.151298917E1,-3.605510294E-2,4.545511305E-2,-9.561203718E-1,9.578790650E-1
1.152295717E1,-1.878503710E-2,6.478566676E-2,-9.696689248E-1,9.720122859E-1
1.153292517E1,-2.246637084E-2,8.489891142E-2,-9.824677110E-1,9.863849989E-1
1.154289217E1,-3.084947169E-2,6.302263588E-2,-9.886124134E-1,9.910994130E-1
1.155286017E1,-3.137161210E-2,4.902809113E-2,-9.972218275E-1,9.989190683E-1
1.156282817E1,-2.008726820E-2,7.470868528E-2,-1.010873914E0,1.013829845E0
1.157279617E1,-1.781985164E-2,8.266913891E-2,-1.017939568E0,1.021446375E0
1.158276417E1,-2.880858816E-2,7.126495242E-2,-1.025185823E0,1.028063520E0
1.159273217E1,-3.503572568E-2,6.473033875E-2,-1.028962493E0,1.031591649E0
1.160270017E1,-3.300746158E-2,6.116143614E-2,-1.032816648E0,1.035152377E0
1.161266817E1,-3.059202991E-2,7.105077058E-2,-1.038667917E0,1.041544587E0
1.162263617E1,-2.608702518E-2,7.207529247E-2,-1.038729668E0,1.041553985E0
1.163260417E1,-3.057040274E-2,6.384270638E-2,-1.040306687E0,1.042712062E0
1.164257217E1,-2.873815037E-2,7.125028968E-2,-1.039805770E0,1.042640170E0
1.165254017E1,-2.877111733E-2,7.757775486E-2,-1.044986248E0,1.048256812E0
1.166250817E1,-3.378265351E-2,6.913340837E-2,-1.046440244E0,1.049265400E0
1.167247617E1,-3.221821040E-2,7.016094774E-2,-1.046630502E0,1.049474144E0
1.168244417E1,-2.566736564E-2,7.538020611E-2,-1.049068332E0,1.052086191E0
1.169241217E1,-2.219153382E-2,8.586244285E-2,-1.048415899E0,1.052160026E0
1.170238017E1,-2.414895594E-2,7.587984949E-2,-1.051728606E0,1.054738823E0
1.171234817E1,-2.539223433E-2,6.618794054E-2,-1.048168063E0,1.050562658E0
1.172231617E1,-2.735871263E-2,6.489950418E-2,-1.047991157E0,1.050355135E0
1.173228417E1,-3.155793250E-2,6.770145893E-2,-1.046165943E0,1.048829143E0
1.174225117E1,-3.728292882E-2,6.801411510E-2,-1.043039083E0,1.045918958E0
1.175221917E1,-4.007911682E-2,6.042544916E-2,-1.041811466E0,1.044331701E0
1.176218717E1,-4.055368900E-2,5.650660768E-2,-1.037728667E0,1.040056914E0
1.177215517E1,-2.843992785E-2,7.713130116E-2,-1.034711003E0,1.037971545E0
1.178212317E1,-2.004298009E-2,8.713067323E-2,-1.035906672E0,1.039757717E0
1.179209117E1,-1.660518907E-2,8.920639008E-2,-1.033912539E0,1.037886628E0
1.180205917E1,-1.764062606E-2,8.748545498E-2,-1.037393332E0,1.041225154E0
1.181202717E1,-2.340644784E-2,7.981212437E-2,-1.038706779E0,1.042031483E0
1.182199517E1,-2.618492395E-2,7.922703028E-2,-1.045837402E0,1.049160829E0
1.183196317E1,-2.901059017E-2,7.748341560E-2,-1.053169012E0,1.056413869E0
1.184193117E1,-3.989945725E-2,6.614474207E-2,-1.054162383E0,1.056988847E0
1.185189917E1,-4.260564595E-2,5.795139819E-2,-1.057884097E0,1.060326539E0
1.186186717E1,-4.025061429E-2,5.072304606E-2,-1.061580539E0,1.063553562E0
1.187183517E1,-3.199550882E-2,5.751713365E-2,-1.060373545E0,1.062414226E0
1.188180317E1,-2.062354609E-2,6.406398118E-2,-1.056270123E0,1.058412063E0
1.189177117E1,-1.660971157E-2,6.789845228E-2,-1.054787874E0,1.057101481E0
1.190173917E1,-1.496387832E-2,6.743985415E-2,-1.051663518E0,1.053929887E0
1.191170717E1,-1.841911860E-2,7.887832075E-2,-1.046840668E0,1.049969731E0
1.192167462E1,-3.436452895E-2,7.712942362E-2,-1.043304443E0,1.046715831E0
1.193164262E1,-3.832507879E-2,6.806013733E-2,-1.043126106E0,1.046046398E0
1.194160963E1,-4.032325000E-2,6.911927462E-2,-1.037776947E0,1.040857546E0
1.195157763E1,-3.605677933E-2,7.967492193E-2,-1.036460876E0,1.040143900E0
1.196154563E1,-2.646780387E-2,8.136096597E-2,-1.029072523E0,1.032623072E0
1.197151363E1,-3.059394099E-2,7.732726634E-2,-1.028042912E0,1.031400856E0
1.198148163E1,-2.701811679E-2,6.836520135E-2,-1.023611069E0,1.026247241E0
1.199144962E1,-3.003747948E-2,7.437167317E-2,-1.023017406E0,1.026156913E0
1.200141762E1,-3.336296976E-2,6.821870804E-2,-1.018577576E0,1.021404502E0
1.201138562E1,-2.906017378E-2,6.020931900E-2,-1.012931705E0,1.015135604E0
1.202135362E1,-2.615093626E-2,7.135891169E-2,-1.010363936E0,1.013218264E0
1.203132162E1,-2.391681448E-2,8.194867522E-2,-1.014968157E0,1.018551893E0
1.204128962E1,-2.913368121E-2,7.552219927E-2,-1.014293671E0,1.017518562E0
1.205125762E1,-3.149521351E-2,6.702394783E-2,-1.015056491E0,1.017754311E0
1.206122562E1,-3.239269927E-2,7.516735792E-2,-1.017675161E0,1.020961386E0
1.207119362E1,-2.458601259E-2,8.315809071E-2,-1.023517251E0,1.027184162E0
1.208116163E1,-3.044842929E-2,7.563998550E-2,-1.026252031E0,1.029486156E0
1.209112963E1,-2.932260372E-2,6.751475483E-2,-1.029720783E0,1.032348269E0
1.210109763E1,-2.821392938E-2,7.181815803E-2,-1.030373812E0,1.033258954E0
1.211106563E1,-3.145560995E-2,7.313515991E-2,-1.035240889E0,1.038297599E0
1.212103363E1,-3.794413805E-2,6.435551494E-2,-1.035803318E0,1.038494056E0
1.213100163E1,-3.353045508E-2,5.777925998E-2,-1.040173650E0,1.042316629E0
1.214096862E1,-2.969124168E-2,6.681749970E-2,-1.037711024E0,1.040283768E0
1.215093662E1,-2.781573497E-2,7.742550224E-2,-1.036556959E0,1.039816692E0
1.216090462E1,-3.045199811E-2,7.142513990E-2,-1.039079428E0,1.041976455E0
1.217087262E1,-2.941896021E-2,7.205659896E-2,-1.038877010E0,1.041788400E0
1.218084062E1,-2.946796268E-2,7.743378729E-2,-1.039934039E0,1.043229197E0
1.219080862E1,-2.470630966E-2,8.553116024E-2,-1.040125489E0,1.043928644E0
1.220077662E1,-2.831249684E-2,8.533781767E-2,-1.043144464E0,1.047012184E0
1.221074462E1,-3.452951461E-2,7.316612452E-2,-1.045580149E0,1.048705591E0
1.222071263E1,-3.402591124E-2,6.909973919E-2,-1.050854206E0,1.053673146E0
1.223068063E1,-3.135140240E-2,7.243337482E-2,-1.056249619E0,1.059194392E0
1.224064863E1,-3.037562035E-2,7.212897390E-2,-1.056918263E0,1.059812004E0
1.225061663E1,-2.950026654E-2,6.826163083E-2,-1.057587028E0,1.060198206E0
1.226058463E1,-2.855484374E-2,6.891543418E-2,-1.058838487E0,1.061462980E0
1.227055263E1,-2.687188424E-2,7.012593746E-2,-1.061973214E0,1.064625217E0
1.228052063E1,-2.802183665E-2,7.572816312E-2,-1.060769796E0,1.063838587E0
1.229048863E1,-3.156115115E-2,7.489743084E-2,-1.066299438E0,1.069392456E0
1.230045663E1,-3.263813630E-2,7.364148647E-2,-1.068106055E0,1.071139049E0
1.231042463E1,-3.309095278E-2,7.923498005E-2,-1.071776032E0,1.075210238E0
1.232039262E1,-2.508123033E-2,8.384011686E-2,-1.076938629E0,1.080488336E0
1.233035962E1,-2.736531012E-2,8.745975047E-2,-1.082771778E0,1.086642900E0
1.234032762E1,-3.006815352E-2,7.964443415E-2,-1.087175608E0,1.090503614E0
1.235029562E1,-3.396902233E-2,6.692382693E-2,-1.092568636E0,1.095143332E0
1.236026363E1,-3.212558478E-2,6.827963889E-2,-1.098632216E0,1.101220645E0
1.237023163E1,-2.784780227E-2,6.960850209E-2,-1.106752276E0,1.109288711E0
1.238019963E1,-3.090004995E-2,7.071611285E-2,-1.108566880E0,1.111249796E0
1.239016763E1,-3.273211792E-2,6.504335999E-2,-1.113230467E0,1.115609297E0
1.240013563E1,-2.736371942E-2,6.996301562E-2,-1.116070986E0,1.118596461E0
1.241010363E1,-2.756159380E-2,8.262208849E-2,-1.116827369E0,1.120218471E0
1.242007163E1,-3.551299125E-2,7.804811001E-2,-1.119953632E0,1.123231418E0
1.243003963E1,-3.359436989E-2,7.925552875E-2,-1.126036406E0,1.129321924E0
1.244000763E1,-3.134533018E-2,8.529956639E-2,-1.130980015E0,1.134625198E0
1.244997563E1,-2.887940407E-2,8.554975688E-2,-1.134344578E0,1.137932512E0
1.245994362E1,-3.013881296E-2,8.511299640E-2,-1.137940168E0,1.141516709E0
1.246991162E1,-3.157462925E-2,7.949495316E-2,-1.146760106E0,1.149945714E0
1.247987962E1,-3.339064121E-2,7.203517109E-2,-1.148614168E0,1.151355075E0
1.248984762E1,-3.530039266E-2,7.298245281E-2,-1.154473066E0,1.157316127E0
1.249981562E1,-3.611398488E-2,7.019758224E-2,-1.157092333E0,1.159782129E0
1.250978362E1,-3.519657999E-2,7.526554912E-2,-1.162407756E0,1.165373542E0
1.251975162E1,-3.089690581E-2,7.790660113E-2,-1.164015412E0,1.167028679E0
1.252971962E1,-3.412401676E-2,7.546058297E-2,-1.166703343E0,1.169639021E0
1.253968663E1,-3.743379563E-2,7.623130828E-2,-1.168167591E0,1.171250623E0
1.254965463E1,-3.278476372E-2,8.040306717E-2,-1.170056701E0,1.173274127E0
1.255962263E1,-2.774579823E-2,8.663380146E-2,-1.173679709E0,1.177199773E0
1.256959063E1,-3.030912019E-2,9.039113671E-2,-1.174253106E0,1.178116954E0
1.257955863E1,-3.348094597E-2,9.032242745E-2,-1.178623796E0,1.182553663E0
1.258952663E1,-3.621614724E-2,8.455373347E-2,-1.182316422E0,1.185889146E0
1.259949462E1,-3.543424234E-2,8.005432039E-2,-1.189689040E0,1.192905819E0
1.260946262E1,-3.220489249E-2,8.161041886E-2,-1.194300175E0,1.197518402E0
1.261943062E1,-2.557681687E-2,8.534417301E-2,-1.196005344E0,1.199319217E0
1.262939862E1,-2.966253087E-2,8.758240193E-2,-1.199949503E0,1.203507105E0
1.263936662E1,-3.223647550E-2,7.896893471E-2,-1.206552863E0,1.209564010E0
1.264933462E1,-3.906912729E-2,7.938376814E-2,-1.209797740E0,1.213028751E0
1.265930262E1,-3.799054772E-2,8.090417087E-2,-1.211763740E0,1.215055607E0
1.266927062E1,-3.893134370E-2,7.978016883E-2,-1.214533448E0,1.217773387E0
1.267923862E1,-3.280314431E-2,8.439222723E-2,-1.216174483E0,1.219540269E0
1.268920662E1,-3.473947570E-2,9.268483520E-2,-1.218379736E0,1.222393754E0
1.269917463E1,-3.475945070E-2,8.812870085E-2,-1.223237395E0,1.226900409E0
1.270914263E1,-3.184834868E-2,8.380320668E-2,-1.227137685E0,1.230408141E0
1.271911063E1,-2.975963242E-2,8.490255475E-2,-1.227442861E0,1.230735575E0
1.272907863E1,-3.190784156E-2,9.274997562E-2,-1.232113719E0,1.236011685E0
1.273904562E1,-3.489244729E-2,9.373480827E-2,-1.237296224E0,1.241332205E0
1.274901362E1,-3.501090407E-2,8.415414393E-2,-1.240020990E0,1.243366294E0
1.275898162E1,-4.105441645E-2,8.089683205E-2,-1.242863417E0,1.246169826E0
1.276894962E1,-3.730154037E-2,8.332078904E-2,-1.245509982E0,1.248851022E0
1.277891762E1,-3.587222472E-2,8.324754983E-2,-1.247750163E0,1.251038545E0
1.278888562E1,-3.471598774E-2,8.201201260E-2,-1.247437000E0,1.250611946E0
1.279885362E1,-3.546034172E-2,8.525494486E-2,-1.249449611E0,1.252856804E0
1.280882162E1,-3.608663753E-2,8.763255924E-2,-1.251041889E0,1.254626446E0
1.281878962E1,-3.447702155E-2,8.917532861E-2,-1.251585126E0,1.255231545E0
1.282875762E1,-3.422993422E-2,9.106079489E-2,-1.249720335E0,1.253500966E0
1.283872563E1,-3.225466982E-2,9.153456986E-2,-1.252690315E0,1.256444176E0
1.284869363E1,-3.444117680E-2,8.931743354E-2,-1.256249189E0,1.259891195E0
1.285866163E1,-3.785055503E-2,8.373384923E-2,-1.255317092E0,1.258675901E0
1.286862963E1,-3.911989555E-2,8.321963996E-2,-1.254784703E0,1.258149644E0
1.287859763E1,-3.626099229E-2,8.453311026E-2,-1.255290270E0,1.258655778E0
1.288856563E1,-3.749909997E-2,8.179779351E-2,-1.253564119E0,1.256789586E0
1.289853363E1,-3.512968495E-2,8.124758303E-2,-1.254037857E0,1.257157990E0
1.290850163E1,-3.329125047E-2,8.449056745E-2,-1.248687983E0,1.251985879E0
1.291847325E1,-2.808290534E-2,8.547353745E-2,-1.248175621E0,1.251413903E0
1.292844125E1,-3.464011475E-2,8.463213593E-2,-1.243960500E0,1.247317225E0
1.293840925E1,-3.523240238E-2,8.294315636E-2,-1.241816401E0,1.245081871E0
1.294837625E1,-3.396497294E-2,8.822409064E-2,-1.237632513E0,1.241237829E0
1.295834425E1,-3.461132199E-2,9.094078094E-2,-1.235089779E0,1.238916838E0
1.296831225E1,-3.299695998E-2,8.925738931E-2,-1.230411649E0,1.234086102E0
1.297828025E1,-3.613922372E-2,8.860065043E-2,-1.226341248E0,1.230068687E0
1.298824825E1,-3.688105568E-2,8.518163860E-2,-1.223543286E0,1.227059207E0
1.299821625E1,-3.296008334E-2,8.421384543E-2,-1.218599677E0,1.221950699E0
1.300818425E1,-3.295401484E-2,8.043584228E-2,-1.214297891E0,1.217405134E0
1.301815225E1,-3.403685614E-2,7.903236151E-2,-1.210183263E0,1.213238703E0
1.302812025E1,-3.472730517E-2,7.742632180E-2,-1.205881953E0,1.208863973E0
1.303808825E1,-3.733241186E-2,7.958721370E-2,-1.198780179E0,1.201999065E0
1.304805625E1,-3.676984459E-2,7.639470696E-2,-1.192795038E0,1.195804405E0
1.305802425E1,-3.600471839E-2,7.997480035E-2,-1.188103676E0,1.191336499E0
1.306799225E1,-3.517133370E-2,8.344031870E-2,-1.182783365E0,1.186244409E0
1.307796025E1,-3.161814436E-2,8.670322597E-2,-1.178515911E0,1.182123898E0
1.308792825E1,-3.060659766E-2,8.824861050E-2,-1.167391896E0,1.171122718E0
1.309789625E1,-2.986730449E-2,8.467624336E-2,-1.165162802E0,1.168617335E0
1.310786425E1,-3.302099183E-2,8.610437810E-2,-1.161558628E0,1.165213627E0
1.311783225E1,-3.027793579E-2,8.507479727E-2,-1.155697823E0,1.159220398E0
1.312780025E1,-3.487143293E-2,7.830619067E-2,-1.148875594E0,1.152069011E0
1.313776825E1,-3.379445150E-2,7.891658694E-2,-1.144861221E0,1.148075393E0
1.314773625E1,-3.344237059E-2,7.697322965E-2,-1.142428994E0,1.145507432E0
1.315770325E1,-3.123940341E-2,7.769654691E-2,-1.136290431E0,1.139372019E0
1.316767125E1,-3.763329238E-2,7.533817738E-2,-1.132076740E0,1.135204762E0
1.317763925E1,-3.286490217E-2,7.110136002E-2,-1.123588920E0,1.126315926E0
1.318760725E1,-3.301215172E-2,7.527548820E-2,-1.117762089E0,1.120780214E0
1.319757525E1,-3.079000860E-2,7.933733612E-2,-1.115086198E0,1.118328962E0
1.320754325E1,-3.213926405E-2,7.928795367E-2,-1.108830094E0,1.112125753E0
1.321751125E1,-3.149478137E-2,8.137826622E-2,-1.104210854E0,1.107653354E0
1.322747925E1,-2.949237823E-2,7.545230538E-2,-1.095475197E0,1.098466548E0
1.323744725E1,-2.984790877E-2,7.770853490E-2,-1.090240717E0,1.093414073E0
1.324741525E1,-3.227679804E-2,7.441641390E-2,-1.086138129E0,1.089162812E0
1.325738325E1,-3.365099058E-2,7.201530784E-2,-1.081445694E0,1.084363123E0
1.326735125E1,-3.320307285E-2,7.269372791E-2,-1.075198531E0,1.078164507E0
1.327731925E1,-3.081368469E-2,7.295897603E-2,-1.071025372E0,1.073949646E0
1.328728725E1,-2.966461144E-2,7.468049228E-2,-1.064665198E0,1.067693378E0
1.329725525E1,-3.062335029E-2,7.332015038E-2,-1.061679840E0,1.064649105E0
1.330722325E1,-2.876041457E-2,7.357319444E-2,-1.055894256E0,1.058845057E0
1.331719125E1,-2.740886062E-2,7.269754261E-2,-1.051346302E0,1.054213083E0
1.332715925E1,-2.570123225E-2,7.733015716E-2,-1.046892881E0,1.050059623E0
1.333712725E1,-2.831405960E-2,7.401984930E-2,-1.043723464E0,1.046727898E0
1.334709525E1,-3.004291095E-2,7.216511667E-2,-1.038065195E0,1.041004193E0
1.335706325E1,-3.089432232E-2,7.109106332E-2,-1.036228418E0,1.039123541E0
1.336703025E1,-3.122177348E-2,7.248878479E-2,-1.032409787E0,1.035422325E0
1.337699825E1,-2.885901742E-2,7.266615331E-2,-1.030794859E0,1.033755897E0
1.338696625E1,-3.122700751E-2,7.214456797E-2,-1.025214911E0,1.028224478E0
1.339693425E1,-3.058518469E-2,6.822812557E-2,-1.022304535E0,1.025035167E0
1.340690225E1,-3.033695184E-2,7.010528445E-2,-1.017609954E0,1.020472978E0
1.341687025E1,-2.776007727E-2,7.018038630E-2,-1.014175892E0,1.016980161E0
1.342683825E1,-2.644586004E-2,6.910360605E-2,-1.010896087E0,1.013600311E0
1.343680625E1,-2.768502943E-2,7.260300219E-2,-1.004186749E0,1.007188505E0
1.344677425E1,-2.992860228E-2,7.134970278E-2,-1.001471043E0,1.004455450E0
1.345674225E1,-2.814082243E-2,6.948202848E-2,-9.979330301E-1,1.000744718E0
1.346671025E1,-3.319114447E-2,6.575986743E-2,-9.898403883E-1,9.925774562E-1
1.347667825E1,-2.934207395E-2,7.179804891E-2,-9.852219224E-1,9.882702836E-1
1.348664625E1,-2.669691667E-2,6.949158013E-2,-9.809463024E-1,9.837669710E-1
1.349661425E1,-2.238818817E-2,6.655544788E-2,-9.736314416E-1,9.761603570E-1
1.350658225E1,-2.228837088E-2,6.715409458E-2,-9.684085250E-1,9.709899666E-1
1.351655025E1,-2.647965215E-2,6.855811179E-2,-9.644217491E-1,9.672180193E-1
1.352651825E1,-3.017076850E-2,6.559787691E-2,-9.600380063E-1,9.627493601E-1
1.353648625E1,-3.094042279E-2,6.262365729E-2,-9.550008774E-1,9.575519349E-1
1.354645425E1,-2.439738251E-2,6.464505196E-2,-9.483295679E-1,9.508434069E-1
1.355642225E1,-2.623789385E-2,6.861370057E-2,-9.483172894E-1,9.511582141E-1
1.356639025E1,-2.513526566E-2,6.674357504E-2,-9.412159324E-1,9.439141474E-1
1.357635725E1,-2.394882776E-2,6.354591995E-2,-9.367274642E-1,9.391858030E-1
1.358632525E1,-2.363523841E-2,6.536618620E-2,-9.335134625E-1,9.360976165E-1
1.359629325E1,-2.794290148E-2,6.309451163E-2,-9.295735955E-1,9.321313173E-1
1.360626125E1,-3.035109490E-2,6.302937865E-2,-9.269320965E-1,9.295681809E-1
1.361622925E1,-2.858355455E-2,6.079232693E-2,-9.207173586E-1,9.231647637E-1
1.362619725E1,-2.767821029E-2,6.114440411E-2,-9.203181863E-1,9.227623126E-1
1.363616525E1,-2.394365892E-2,6.114786118E-2,-9.131367207E-1,9.154949647E-1
1.364613325E1,-2.167035826E-2,6.245214865E-2,-9.095684886E-1,9.119674943E-1
1.365610125E1,-2.788271382E-2,6.585274637E-2,-9.030378461E-1,9.058649907E-1
1.366606925E1,-2.704634890E-2,6.110965833E-2,-9.034469724E-1,9.059151876E-1
1.367603725E1,-2.708443254E-2,6.104015186E-2,-8.982977867E-1,9.007765429E-1
1.368600525E1,-2.617589384E-2,6.091260165E-2,-8.951702714E-1,8.976220459E-1
1.369597325E1,-2.477480471E-2,6.442584842E-2,-8.921190500E-1,8.947853823E-1
1.370594125E1,-2.555854432E-2,6.588084996E-2,-8.850164413E-1,8.878331076E-1
1.371590925E1,-2.715430968E-2,6.105547398E-2,-8.836401105E-1,8.861630619E-1
1.372587725E1,-2.761439979E-2,5.586321652E-2,-8.790313005E-1,8.812373581E-1
1.373584525E1,-2.379516140E-2,6.053919718E-2,-8.790879846E-1,8.814912868E-1
1.374581325E1,-2.256744541E-2,6.431557238E-2,-8.758180141E-1,8.784662636E-1
1.375578125E1,-2.174186520E-2,6.695955992E-2,-8.732390404E-1,8.760723218E-1
1.376574925E1,-2.491576783E-2,5.946494639E-2,-8.696300387E-1,8.720167886E-1
1.377571725E1,-3.022930771E-2,5.779141933E-2,-8.690270782E-1,8.714710103E-1
1.378568525E1,-2.876515314E-2,6.188731641E-2,-8.656682372E-1,8.683541736E-1
1.379565225E1,-2.653422393E-2,5.764783174E-2,-8.637659550E-1,8.660940841E-1
1.380562025E1,-2.782979794E-2,6.035445631E-2,-8.602339029E-1,8.627974999E-1
1.381558825E1,-2.671712823E-2,5.878638476E-2,-8.589742184E-1,8.613979056E-1
1.382555625E1,-2.401023358E-2,5.750409514E-2,-8.565628529E-1,8.588266025E-1
1.383552425E1,-2.267412655E-2,6.060827523E-2,-8.508298397E-1,8.532871118E-1
1.384549225E1,-2.506186441E-2,5.952548236E-2,-8.485715985E-1,8.510259326E-1
1.385546025E1,-2.952372469E-2,5.973028392E-2,-8.471553326E-1,8.497714485E-1
1.386542825E1,-2.910739370E-2,5.806709081E-2,-8.425445557E-1,8.450445880E-1
1.387539625E1,-2.724291570E-2,5.859918892E-2,-8.431307077E-1,8.456035902E-1
1.388536425E1,-2.644108981E-2,5.992751941E-2,-8.395361304E-1,8.420874973E-1
1.389533225E1,-2.648796141E-2,5.776209757E-2,-8.336194158E-1,8.360379192E-1
1.390530025E1,-2.378088422E-2,5.806607008E-2,-8.311870694E-1,8.335521239E-1
1.391526825E1,-2.711436339E-2,5.636697635E-2,-8.264335394E-1,8.287972127E-1
1.392523287E1,-2.585008182E-2,5.678850412E-2,-8.251788616E-1,8.275344794E-1
1.393520088E1,-2.707886510E-2,5.388299748E-2,-8.187696934E-1,8.209874866E-1
1.394516888E1,-2.560813725E-2,5.376316234E-2,-8.160488009E-1,8.182187359E-1
1.395513688E1,-2.585847303E-2,5.441403762E-2,-8.131933808E-1,8.154219906E-1
1.396510488E1,-2.504751459E-2,5.818871036E-2,-8.098182082E-1,8.122923331E-1
1.397507288E1,-2.494924515E-2,5.836128071E-2,-8.060628772E-1,8.085578927E-1
1.398504088E1,-2.307088487E-2,5.787139386E-2,-8.025261164E-1,8.049407006E-1
1.399500787E1,-2.634231187E-2,5.593873933E-2,-7.981491685E-1,8.005405393E-1
1.400497587E1,-2.350927144E-2,5.493085086E-2,-7.921944261E-1,7.944445185E-1
1.401494387E1,-2.096515335E-2,5.856047198E-2,-7.870106101E-1,7.894647345E-1
1.402491187E1,-2.155248821E-2,5.774305016E-2,-7.795218825E-1,7.819546885E-1
1.403487987E1,-2.317968011E-2,5.415417254E-2,-7.768531442E-1,7.790832944E-1
1.404484787E1,-2.241175808E-2,5.274243653E-2,-7.748726010E-1,7.769888026E-1
1.405481587E1,-2.224078402E-2,5.374032259E-2,-7.677824497E-1,7.699821848E-1
1.406478387E1,-2.218402922E-2,5.250557885E-2,-7.654112577E-1,7.675306902E-1
1.407475188E1,-2.473640442E-2,5.277242884E-2,-7.605062723E-1,7.627362645E-1
1.408471988E1,-2.256318368E-2,5.031613261E-2,-7.584266663E-1,7.604287071E-1
1.409468788E1,-2.247023955E-2,5.007245019E-2,-7.519608140E-1,7.539610253E-1
1.410465588E1,-2.216341719E-2,5.160073563E-2,-7.489040494E-1,7.510067431E-1
1.411462388E1,-2.256981656E-2,5.389797688E-2,-7.448669672E-1,7.471553971E-1
1.412459188E1,-2.359561250E-2,5.230491981E-2,-7.380117178E-1,7.402390514E-1
1.413455988E1,-2.272289433E-2,5.191823095E-2,-7.358223200E-1,7.380015713E-1
1.414452788E1,-2.131868713E-2,4.938268289E-2,-7.299813628E-1,7.319603308E-1
1.415449588E1,-2.193654142E-2,5.326557159E-2,-7.270185947E-1,7.292972440E-1
1.416446388E1,-2.316013351E-2,5.067353323E-2,-7.228367329E-1,7.249807867E-1
1.417443187E1,-2.036328055E-2,4.993557185E-2,-7.174912095E-1,7.195150174E-1
1.418439987E1,-2.179238759E-2,4.859301820E-2,-7.121850252E-1,7.141734381E-1
1.419436787E1,-2.162860334E-2,5.059917644E-2,-7.090283632E-1,7.111605255E-1
1.420433487E1,-1.993427053E-2,4.745093733E-2,-7.037004232E-1,7.055800821E-1
1.421430288E1,-2.290183306E-2,4.998387024E-2,-6.990532279E-1,7.012120198E-1
1.422427088E1,-2.333480865E-2,4.839801043E-2,-6.908830404E-1,6.929691597E-1
1.423423888E1,-1.941756532E-2,4.824647680E-2,-6.853806973E-1,6.873510490E-1
1.424420688E1,-1.917447150E-2,4.931462929E-2,-6.811398268E-1,6.831918154E-1
1.425417488E1,-2.031350508E-2,4.878226295E-2,-6.763405800E-1,6.784017451E-1
1.426414288E1,-2.174777538E-2,4.537620395E-2,-6.696638465E-1,6.715516606E-1
1.427411088E1,-2.017118223E-2,4.472905397E-2,-6.635015607E-1,6.653133742E-1
1.428407888E1,-2.039358579E-2,4.712840170E-2,-6.583844423E-1,6.603840235E-1
1.429404688E1,-2.011448517E-2,4.719205201E-2,-6.479595304E-1,6.499871039E-1
1.430401488E1,-2.196557075E-2,4.588358104E-2,-6.402462721E-1,6.422640253E-1
1.431398287E1,-2.075622976E-2,3.732870519E-2,-6.339892149E-1,6.354262962E-1
1.432395087E1,-1.942891069E-2,4.130798951E-2,-6.250678301E-1,6.267324986E-1
1.433391887E1,-1.557291951E-2,4.669290036E-2,-6.178109646E-1,6.197686106E-1
1.434388687E1,-1.218575053E-2,4.809574038E-2,-6.102033854E-1,6.122171708E-1
1.435385487E1,-1.849717647E-2,4.588425159E-2,-6.011904478E-1,6.032225664E-1
1.436382287E1,-2.178998850E-2,4.155828804E-2,-5.940592885E-1,5.959096686E-1
1.437379087E1,-2.259346470E-2,3.813319653E-2,-5.863369107E-1,5.880098453E-1
1.438375887E1,-1.950531453E-2,4.316862300E-2,-5.786640048E-1,5.805997053E-1
1.439372687E1,-1.624533907E-2,4.138377309E-2,-5.696726441E-1,5.714048033E-1
1.440369488E1,-1.702223904E-2,4.083060101E-2,-5.609684587E-1,5.627099663E-1
1.441366288E1,-1.712477021E-2,4.092807323E-2,-5.506322384E-1,5.524167149E-1
1.442362988E1,-1.881755516E-2,3.303849697E-2,-5.421153903E-1,5.434470895E-1
1.443359788E1,-1.699861512E-2,4.077098519E-2,-5.325219035E-1,5.343508247E-1
1.444356588E1,-1.784062572E-2,4.198772088E-2,-5.196282864E-1,5.216270819E-1
1.445353387E1,-1.939937286E-2,3.320195526E-2,-5.071743131E-1,5.086300122E-1
1.446350187E1,-2.106650546E-2,3.345307708E-2,-4.884782732E-1,4.900754323E-1
1.447346987E1,-1.945236325E-2,2.949029580E-2,-4.709025025E-1,4.722258346E-1
1.448343787E1,-2.020407654E-2,2.702593058E-2,-4.529712200E-1,4.542263002E-1
1.449340587E1,-1.704423502E-2,3.074716404E-2,-4.290941358E-1,4.305318471E-1
1.450337387E1,-2.102182619E-2,2.641244791E-2,-4.079172015E-1,4.093115902E-1
1.451334187E1,-1.624544710E-2,2.593600564E-2,-3.816701472E-1,3.828951452E-1
1.452330987E1,-1.124019362E-2,2.374725603E-2,-3.574054539E-1,3.583698266E-1
1.453327787E1,-8.750405163E-3,2.227932028E-2,-3.331286013E-1,3.339874290E-1
1.454324587E1,-5.532829091E-3,2.357383817E-2,-3.070562184E-1,3.080095117E-1
1.455321388E1,-8.844469674E-3,2.158206142E-2,-2.802720070E-1,2.812408362E-1
1.456318188E1,-1.187863573E-2,1.140862331E-2,-2.469065338E-1,2.474552386E-1
1.457314988E1,-1.365043595E-2,9.411253035E-3,-2.189974040E-1,2.196241540E-1
1.458311788E1,-1.446347311E-2,5.824682303E-3,-1.898202151E-1,1.904595312E-1
1.459308588E1,-1.268821023E-2,-1.269180328E-3,-1.553666443E-1,1.558890492E-1
1.460305388E1,-7.472701836E-3,-1.924491720E-3,-1.257904917E-1,1.260269524E-1
1.461302188E1,-3.015102819E-3,2.254806925E-3,-8.798611164E-2,8.806662728E-2
1.462298988E1,6.607777905E-4,4.774218891E-3,-5.675592646E-2,5.696020525E-2
1.463295687E1,1.012581401E-3,3.013336565E-3,-2.388533019E-2,2.409594398E-2
1.464292487E1,-1.667809673E-3,-2.739152871E-3,8.582501672E-3,9.162089418E-3
1.465289287E1,-7.647138555E-3,-5.551717244E-3,3.311368078E-2,3.443568131E-2
1.466286087E1,-6.389061455E-3,-4.170868080E-3,5.509514362E-2,5.562095915E-2
1.467282887E1,-9.475931525E-3,-1.037629973E-2,7.197186351E-2,7.333082579E-2
1.468279687E1,-8.102378808E-3,-1.837652177E-2,9.199596941E-2,9.416264378E-2
1.469276488E1,-4.242925905E-3,-1.204672083E-2,1.057831571E-1,1.065514065E-1
1.470273288E1,-3.537242999E-3,-1.614379510E-2,1.246334910E-1,1.257244658E-1
1.471270088E1,-5.297349999E-4,-2.997199446E-2,1.449446231E-1,1.480119753E-1
1.472266888E1,3.573743394E-3,-2.409977466E-2,1.681189984E-1,1.698751554E-1
1.473263688E1,4.653389100E-3,-1.488097571E-2,1.866649836E-1,1.873150116E-1
1.474260488E1,3.125747899E-3,-2.362657338E-2,2.049012780E-1,2.062826192E-1
1.475257288E1,1.659411355E-3,-3.762920573E-2,2.290031612E-1,2.320800694E-1
1.476254088E1,-6.079255836E-4,-3.856004030E-2,2.519800067E-1,2.549140444E-1
1.477250888E1,-4.130222369E-3,-4.232628644E-2,2.685302198E-1,2.718769063E-1
1.478247687E1,-5.420683883E-3,-5.325660110E-2,2.853183746E-1,2.902967865E-1
1.479244487E1,-1.473242603E-2,-7.377332449E-2,3.027673960E-1,3.119737871E-1
1.480241287E1,-1.136168651E-2,-8.652813733E-2,3.191664815E-1,3.308828333E-1
1.481238087E1,-2.464863937E-3,-8.103244007E-2,3.370096684E-1,3.466234967E-1
1.482234887E1,3.029449377E-3,-7.688888162E-2,3.544369936E-1,3.626936174E-1
1.483231588E1,3.878198797E-3,-8.961533010E-2,3.719075918E-1,3.825718294E-1
1.484228388E1,-2.697572345E-4,-9.456904233E-2,3.906844854E-1,4.019673416E-1
1.485225188E1,-2.681593178E-4,-9.262200445E-2,4.081257880E-1,4.185039623E-1
1.486221988E1,4.671874456E-3,-7.982978970E-2,4.283827543E-1,4.357825214E-1
1.487218788E1,3.944565542E-3,-6.959766150E-2,4.501301348E-1,4.554959191E-1
1.488215588E1,4.402892198E-3,-5.497874692E-2,4.752595127E-1,4.784492162E-1
1.489212388E1,1.084854081E-2,-4.729100317E-2,4.963828921E-1,4.987485393E-1
1.490209188E1,1.293880306E-2,-3.318216279E-2,5.204561353E-1,5.216733243E-1
1.491205988E1,2.184867486E-2,-1.653873548E-2,5.430437326E-1,5.437346687E-1
1.492202850E1,3.080672398E-2,-1.294896845E-2,5.622141361E-1,5.632064141E-1
1.493199650E1,3.298146278E-2,-1.271700673E-2,5.785009861E-1,5.795799255E-1
1.494196450E1,3.612162173E-2,-6.533518899E-3,5.895889401E-1,5.907305450E-1
1.495193250E1,2.881949954E-2,-2.111139521E-2,5.988237262E-1,5.998884143E-1
1.496190050E1,1.750647277E-2,-4.345298186E-2,6.072850227E-1,6.090892685E-1
1.497186850E1,9.035224095E-3,-6.175475940E-2,6.138830185E-1,6.170475233E-1
1.498183650E1,9.268034250E-3,-6.754600257E-2,6.249852180E-1,6.286929948E-1
1.499180450E1,1.315332018E-2,-6.256402284E-2,6.326937675E-1,6.359156157E-1
1.500177250E1,1.054161787E-2,-6.256026030E-2,6.482786536E-1,6.513755634E-1
1.501174050E1,1.260982826E-2,-6.462980807E-2,6.603382826E-1,6.636133417E-1
1.502170850E1,1.927496865E-2,-5.586685985E-2,6.759272814E-1,6.785059470E-1
1.503167550E1,3.030311875E-2,-3.916031867E-2,6.923640370E-1,6.941323860E-1
1.504164350E1,3.728521243E-2,-2.559261769E-2,7.063671947E-1,7.078133814E-1
1.505161150E1,3.242094815E-2,-2.264076844E-2,7.168400884E-1,7.179299649E-1
1.506157950E1,2.903393656E-2,-3.176343814E-2,7.284741998E-1,7.297441642E-1
1.507154750E1,1.938503608E-2,-4.068103433E-2,7.351957560E-1,7.365755397E-1
1.508151550E1,2.129236609E-2,-4.931489751E-2,7.425072789E-1,7.444477035E-1
1.509148350E1,2.230782993E-2,-4.942195490E-2,7.462807298E-1,7.482480181E-1
1.510145150E1,2.346571907E-2,-5.795850605E-2,7.529256940E-1,7.555176564E-1
1.511141950E1,1.961452141E-2,-6.604333222E-2,7.585808635E-1,7.617029458E-1
1.512138750E1,1.797308214E-2,-6.750568002E-2,7.674133182E-1,7.705863024E-1
1.513135550E1,1.436876040E-2,-6.768438220E-2,7.746989131E-1,7.777827735E-1
1.514132350E1,1.481848955E-2,-6.242005900E-2,7.818832994E-1,7.845108955E-1
1.515129150E1,2.253659628E-2,-6.102696061E-2,7.940949202E-1,7.967552512E-1
1.516125950E1,2.876764722E-2,-4.916305467E-2,8.029090166E-1,8.049269982E-1
1.517122750E1,3.308143467E-2,-3.891441226E-2,8.111581802E-1,8.127646069E-1
1.518119550E1,3.484373167E-2,-3.493460640E-2,8.165555000E-1,8.180448625E-1
1.519116350E1,3.339710459E-2,-4.536088184E-2,8.239830732E-1,8.259062181E-1
1.520113150E1,2.946446463E-2,-5.073645711E-2,8.276280165E-1,8.297050539E-1
1.521109950E1,2.713899314E-2,-5.376260728E-2,8.310049176E-1,8.331843229E-1
1.522106750E1,2.823789045E-2,-5.934117734E-2,8.316494823E-1,8.342419404E-1
1.523103450E1,2.166600898E-2,-6.309916824E-2,8.321080804E-1,8.347782810E-1
1.524100250E1,2.255393192E-2,-7.001655549E-2,8.343702555E-1,8.376065431E-1
1.525097050E1,1.921645924E-2,-7.202351093E-2,8.386526108E-1,8.419589420E-1
1.526093850E1,2.018201537E-2,-6.849227101E-2,8.430652618E-1,8.460836487E-1
1.527090650E1,2.321135998E-2,-6.427169591E-2,8.468325734E-1,8.495852079E-1
1.528087450E1,2.934427559E-2,-5.539400503E-2,8.498879671E-1,8.521966551E-1
1.529084250E1,3.491827473E-2,-4.931720719E-2,8.536337018E-1,8.557698112E-1
1.530081050E1,3.471704200E-2,-4.703661799E-2,8.588739634E-1,8.608613137E-1
1.531077850E1,3.262486309E-2,-4.472818971E-2,8.592358828E-1,8.610175927E-1
1.532074650E1,2.679768018E-2,-5.015549809E-2,8.591927886E-1,8.610725507E-1
1.533071450E1,2.707438171E-2,-5.503893644E-2,8.608380556E-1,8.630205471E-1
1.534068250E1,2.543822117E-2,-6.265081465E-2,8.597121239E-1,8.623671861E-1
1.535065050E1,2.665155753E-2,-6.388359517E-2,8.602849841E-1,8.630652774E-1
1.536061850E1,2.766262367E-2,-6.196772307E-2,8.556013107E-1,8.582883096E-1
1.537058650E1,2.666447125E-2,-6.567617506E-2,8.599707484E-1,8.628870390E-1
1.538055450E1,1.995966956E-2,-6.719622761E-2,8.603507876E-1,8.632017141E-1
1.539052250E1,2.017059177E-2,-6.914273649E-2,8.598330617E-1,8.628444036E-1
1.540049050E1,2.249494568E-2,-6.425532699E-2,8.608108759E-1,8.634987746E-1
1.541045850E1,2.877574414E-2,-5.574040487E-2,8.631009459E-1,8.653775356E-1
1.542042650E1,3.296351060E-2,-4.995448887E-2,8.642042279E-1,8.662742011E-1
1.543039350E1,3.275818378E-2,-4.444627091E-2,8.607658148E-1,8.625348442E-1
1.544036150E1,3.304138035E-2,-4.878312349E-2,8.633781672E-1,8.653862637E-1
1.545032950E1,2.868578024E-2,-5.777235329E-2,8.593690395E-1,8.617863221E-1
1.546029750E1,2.312584966E-2,-6.129578501E-2,8.575822711E-1,8.600810019E-1
1.547026550E1,2.672724053E-2,-6.152694672E-2,8.542051315E-1,8.568350584E-1
1.548023350E1,2.852620557E-2,-6.261884421E-2,8.503257036E-1,8.531053079E-1
1.549020150E1,2.242330462E-2,-6.110536680E-2,8.508180976E-1,8.533042281E-1
1.550016950E1,2.147987857E-2,-6.443642825E-2,8.469063044E-1,8.496256392E-1
1.551013750E1,1.933417097E-2,-6.486892700E-2,8.455134630E-1,8.482186063E-1
1.552010550E1,2.039208449E-2,-6.321340799E-2,8.467500806E-1,8.493512059E-1
1.553007350E1,2.790219896E-2,-5.788708478E-2,8.462584615E-1,8.486947808E-1
1.554004150E1,2.991387248E-2,-5.316045880E-2,8.467819095E-1,8.489761341E-1
1.555000950E1,2.992985025E-2,-4.830551520E-2,8.440010548E-1,8.459119335E-1
1.555997750E1,2.537520416E-2,-5.658325553E-2,8.412947059E-1,8.435771144E-1
1.556994550E1,2.560210600E-2,-6.101687998E-2,8.402690887E-1,8.428704936E-1
1.557991350E1,2.452960052E-2,-5.816574767E-2,8.410158753E-1,8.433816800E-1
1.558988150E1,2.640526555E-2,-5.581018329E-2,8.355233669E-1,8.378014749E-1
1.559984950E1,2.562581375E-2,-5.806399509E-2,8.340433836E-1,8.364547062E-1
1.560981750E1,2.764076181E-2,-6.061849743E-2,8.295945525E-1,8.322654237E-1
1.561978550E1,2.400547639E-2,-6.081093103E-2,8.310680389E-1,8.336356024E-1
1.562975250E1,2.143419348E-2,-5.884871632E-2,8.301058412E-1,8.324651966E-1
1.563972050E1,2.432946488E-2,-6.130191311E-2,8.294990063E-1,8.321168481E-1
1.564968850E1,2.682884224E-2,-5.917964131E-2,8.275306821E-1,8.300777352E-1
1.565965650E1,2.580469474E-2,-5.713579804E-2,8.270468712E-1,8.294196217E-1
1.566962450E1,2.577726357E-2,-5.371949449E-2,8.254441619E-1,8.275918776E-1
1.567959250E1,2.850343473E-2,-5.331001058E-2,8.211085200E-1,8.233307991E-1
1.568956050E1,2.490923181E-2,-5.261199549E-2,8.200453520E-1,8.221087952E-1
1.569952850E1,2.968518436E-2,-5.379380658E-2,8.184782267E-1,8.207810861E-1
1.570949650E1,2.537725493E-2,-5.435999483E-2,8.159996271E-1,8.182019345E-1
1.571946450E1,2.660287172E-2,-5.549273267E-2,8.147613406E-1,8.170821246E-1
1.572943250E1,2.333544008E-2,-6.019640714E-2,8.105016351E-1,8.130689089E-1
1.573940050E1,1.950980909E-2,-6.176713854E-2,8.104686141E-1,8.130530035E-1
1.574936850E1,2.473013662E-2,-5.971517414E-2,8.123005629E-1,8.148678949E-1
1.575933650E1,2.267329581E-2,-5.991913751E-2,8.117387295E-1,8.142629467E-1
1.576930450E1,2.396652661E-2,-6.127521768E-2,8.130779862E-1,8.157357773E-1
1.577927250E1,2.389097586E-2,-5.895644054E-2,8.091439605E-1,8.116406775E-1
1.578924050E1,2.437433787E-2,-5.558061600E-2,8.130034208E-1,8.152655245E-1
1.579920850E1,2.890618332E-2,-4.823648185E-2,8.109921217E-1,8.129394486E-1
1.580917650E1,2.994295210E-2,-4.789187014E-2,8.097364306E-1,8.117039477E-1
1.581914350E1,2.849371545E-2,-4.954429716E-2,8.064999580E-1,8.085225486E-1
1.582911150E1,2.615040168E-2,-5.545251817E-2,8.057082295E-1,8.080374845E-1
1.583907950E1,2.362670749E-2,-5.970606953E-2,8.051970601E-1,8.077532678E-1
1.584904750E1,2.394708619E-2,-5.739470944E-2,8.037099838E-1,8.061124945E-1
1.585901550E1,2.107598633E-2,-5.897470936E-2,8.017060757E-1,8.041485219E-1
1.586898350E1,2.066958696E-2,-6.370155513E-2,8.066662550E-1,8.094415154E-1
1.587895150E1,2.203152888E-2,-6.032067165E-2,8.047705889E-1,8.073287264E-1
1.588891950E1,1.997050829E-2,-6.027166918E-2,8.064540029E-1,8.089496610E-1
1.589888750E1,2.300015092E-2,-6.036337465E-2,8.093942404E-1,8.119678444E-1
1.590885550E1,2.479938231E-2,-5.600990355E-2,8.127405047E-1,8.150455489E-1
1.591882350E1,2.464238741E-2,-5.192385986E-2,8.167632222E-1,8.187829356E-1
1.592879137E1,3.084781766E-2,-4.770701006E-2,8.189382553E-1,8.209064579E-1
1.593875938E1,2.787476964E-2,-4.843553901E-2,8.193225861E-1,8.212262199E-1
1.594872738E1,2.762230113E-2,-5.550649762E-2,8.204269409E-1,8.227662658E-1
