"Time (s)","Gyroscope x (rad/s)","Gyroscope y (rad/s)","Gyroscope z (rad/s)","Absolute (rad/s)"
0.000000000E0,-7.202271372E-2,-5.565230921E-2,-2.063145489E-1,2.254997647E-1
1.004000000E-2,-5.010436848E-2,-4.982371628E-2,-2.003008574E-1,2.123988793E-1
2.008100000E-2,-2.206917107E-2,-4.721673205E-2,-1.870167404E-1,1.941435791E-1
3.012100000E-2,-5.168485455E-3,-5.449435115E-2,-1.739057302E-1,1.823171702E-1
4.016100000E-2,-4.703325219E-3,-5.887477472E-2,-1.626689732E-1,1.730593979E-1
5.020100000E-2,-8.582751267E-3,-6.809410453E-2,-1.460396647E-1,1.613631134E-1
6.024200000E-2,-1.296140254E-4,-7.287004590E-2,-1.196133867E-1,1.400622100E-1
7.028200000E-2,8.590374142E-3,-6.881459057E-2,-9.186191857E-2,1.150993244E-1
8.032200000E-2,1.872952655E-2,-5.995860696E-2,-6.302259862E-2,8.898133316E-2
9.036300000E-2,2.984982170E-2,-4.135163501E-2,-3.175175935E-2,6.007614997E-2
1.004030000E-1,3.570469469E-2,-2.889841050E-2,4.925864283E-3,4.619748360E-2
1.104430000E-1,3.898863867E-2,-1.528836787E-3,4.218961298E-2,5.746664016E-2
1.204830000E-1,4.199540615E-2,2.008559927E-2,7.903804630E-2,9.172817560E-2
1.305240000E-1,4.245560244E-2,4.226733372E-2,1.161739677E-1,1.307111183E-1
1.405640000E-1,4.831961542E-2,5.750727281E-2,1.505761594E-1,1.682707682E-1
1.506040000E-1,5.411119387E-2,6.969816238E-2,1.832139939E-1,2.033549181E-1
1.606140000E-1,5.565427244E-2,7.987509668E-2,2.095196843E-1,2.310323078E-1
1.706540000E-1,4.983393848E-2,8.355797827E-2,2.297317386E-1,2.494835242E-1
1.806950000E-1,4.051207379E-2,6.988369673E-2,2.473562062E-1,2.602115523E-1
1.907350000E-1,3.778552637E-2,7.036466897E-2,2.586376071E-1,2.706886485E-1
2.007750000E-1,3.195698559E-2,5.722218007E-2,2.661276460E-1,2.740794607E-1
2.108150000E-1,3.439084440E-2,5.474277586E-2,2.683220804E-1,2.760004357E-1
2.208560000E-1,4.186057672E-2,4.683000594E-2,2.679972053E-1,2.752596217E-1
2.308960000E-1,4.942768440E-2,4.051644355E-2,2.642024755E-1,2.718227847E-1
2.409360000E-1,5.196554959E-2,3.847494721E-2,2.599661350E-1,2.678864149E-1
2.509770000E-1,5.165742338E-2,3.254248947E-2,2.493832856E-1,2.567479818E-1
2.610170000E-1,4.496670142E-2,2.924152091E-2,2.353024036E-1,2.413385421E-1
2.710570000E-1,4.183136299E-2,2.381080389E-2,2.209991068E-1,2.261800665E-1
2.810970000E-1,3.509948403E-2,2.044960670E-2,2.055351287E-1,2.095109766E-1
2.911380000E-1,3.301982209E-2,1.290913112E-2,1.891060919E-1,1.924008012E-1
3.011780000E-1,3.188829124E-2,9.740129113E-3,1.720354110E-1,1.752367424E-1
3.112180000E-1,3.047681600E-2,5.923552439E-3,1.556266099E-1,1.586933096E-1
3.212590000E-1,2.712222934E-2,-1.250582747E-3,1.348480433E-1,1.375542586E-1
3.312680000E-1,2.544710040E-2,-6.403799634E-3,1.160394773E-1,1.189694240E-1
3.413090000E-1,1.941096410E-2,-1.406811364E-2,9.512298554E-2,9.809729725E-2
3.513490000E-1,1.561702602E-2,-1.449555065E-2,7.625529170E-2,7.917627171E-2
3.613890000E-1,8.974046446E-3,-2.065621689E-2,5.513809249E-2,5.956023883E-2
3.714290000E-1,8.299201727E-3,-2.500169724E-2,3.762141615E-2,4.592747073E-2
3.814700000E-1,1.957802288E-2,-3.805687279E-2,2.163019590E-2,4.795299700E-2
3.915100000E-1,3.231299296E-2,-5.878878012E-2,1.315149106E-2,6.836089452E-2
4.015500000E-1,4.989510402E-2,-7.572295517E-2,1.103900187E-2,9.135287027E-2
4.115910000E-1,6.587247550E-2,-8.863076568E-2,1.157083549E-2,1.110336881E-1
4.216310000E-1,7.083474845E-2,-9.327502549E-2,1.570466720E-2,1.181711832E-1
4.316710000E-1,7.028853893E-2,-9.093251079E-2,1.703811251E-2,1.161873380E-1
4.417110000E-1,6.519513577E-2,-8.465814590E-2,2.456490509E-2,1.096396003E-1
4.517520000E-1,5.302955210E-2,-6.985150278E-2,2.910000458E-2,9.240225161E-2
4.617920000E-1,4.981232435E-2,-5.700867623E-2,3.992944211E-2,8.558981931E-2
4.718320000E-1,4.229848087E-2,-4.468410090E-2,5.169395730E-2,8.036227708E-2
4.818730000E-1,4.266919196E-2,-3.517702967E-2,6.235948205E-2,8.334739564E-2
4.919130000E-1,4.187716544E-2,-2.535049990E-2,7.526116818E-2,8.978077894E-2
5.019230000E-1,3.548279777E-2,-1.672974043E-2,8.397429436E-2,9.268546416E-2
5.119630000E-1,2.162370645E-2,-1.044468116E-2,8.846598119E-2,9.166736536E-2
5.220030000E-1,3.607645631E-4,-6.027405616E-3,8.848746121E-2,8.869323853E-2
5.320430000E-1,-1.461019460E-2,1.687239856E-3,8.157628775E-2,8.289146691E-2
5.420840000E-1,-1.394069474E-2,4.502385855E-5,7.252204418E-2,7.384979275E-2
5.521240000E-1,-2.162599005E-3,-4.076217767E-3,6.461831927E-2,6.478286480E-2
5.621640000E-1,1.456601545E-2,-1.588288695E-2,5.736950412E-2,6.128372465E-2
5.722050000E-1,3.303876519E-2,-2.882638201E-2,5.270018429E-2,6.855530416E-2
5.822450000E-1,4.774796963E-2,-4.561886936E-2,5.553241074E-2,8.628324570E-2
5.922850000E-1,5.387936532E-2,-6.092724949E-2,6.064727902E-2,1.014554493E-1
6.023250000E-1,5.525725707E-2,-7.047161460E-2,6.606990844E-2,1.112872218E-1
6.123660000E-1,5.255201831E-2,-7.167216390E-2,7.144443691E-2,1.140303524E-1
6.224060000E-1,5.173902959E-2,-6.406138837E-2,7.812544703E-2,1.135093570E-1
6.324460000E-1,5.121066049E-2,-6.103044748E-2,8.708378673E-2,1.180289506E-1
6.425082500E-1,4.807182774E-2,-5.658059567E-2,9.374932945E-2,1.195876298E-1
6.525482500E-1,4.211460426E-2,-4.661131650E-2,9.909988940E-2,1.173330422E-1
6.625582500E-1,3.913434595E-2,-4.917815328E-2,1.085185036E-1,1.254043596E-1
6.725982500E-1,3.682192415E-2,-5.298061669E-2,1.144086197E-1,1.313473719E-1
6.826382500E-1,3.784737363E-2,-6.171007454E-2,1.188268661E-1,1.391415866E-1
6.926792500E-1,3.405369818E-2,-8.028908819E-2,1.215749830E-1,1.496210832E-1
7.027192500E-1,3.202705085E-2,-8.717611432E-2,1.274091452E-1,1.576657768E-1
7.127592500E-1,3.008640558E-2,-1.000847220E-1,1.279891729E-1,1.652373196E-1
7.227992500E-1,2.810023353E-2,-9.812708199E-2,1.303121150E-1,1.655288333E-1
7.328402500E-1,2.330654114E-2,-1.023828164E-1,1.312711090E-1,1.680997918E-1
7.428802500E-1,1.850111224E-2,-1.040988639E-1,1.351534873E-1,1.715964153E-1
7.529202500E-1,2.185057104E-2,-1.026514322E-1,1.383647323E-1,1.736650889E-1
7.629602500E-1,2.899770439E-2,-1.035723984E-1,1.414035112E-1,1.776599604E-1
7.730012500E-1,3.449233621E-2,-1.020115241E-1,1.464211792E-1,1.817559738E-1
7.830412500E-1,3.416702896E-2,-9.231904149E-2,1.522644460E-1,1.813136862E-1
7.930812500E-1,3.075845167E-2,-8.197772503E-2,1.563185751E-1,1.791701054E-1
8.031222500E-1,1.867754757E-2,-6.185195968E-2,1.599853933E-1,1.725393919E-1
8.131622500E-1,1.127049793E-2,-4.244150966E-2,1.617065966E-1,1.675629113E-1
8.232022500E-1,8.835626766E-3,-3.210323304E-2,1.611926258E-1,1.645957122E-1
8.332122500E-1,9.839905426E-3,-2.376061678E-2,1.606552005E-1,1.627005965E-1
8.432522500E-1,1.210382581E-2,-1.298038289E-2,1.592101306E-1,1.601963127E-1
8.532932500E-1,1.808129065E-2,-6.992797367E-3,1.562753320E-1,1.574732094E-1
8.633332500E-1,1.999767497E-2,-5.542058498E-4,1.541819721E-1,1.554744181E-1
8.733732500E-1,1.582556777E-2,-7.294666488E-3,1.498697847E-1,1.508794655E-1
8.834132500E-1,1.583594643E-2,-1.246190257E-2,1.445661336E-1,1.459638421E-1
8.934542500E-1,1.568601094E-2,-2.587171644E-2,1.431147158E-1,1.462778812E-1
9.034942500E-1,1.406041905E-2,-3.945405781E-2,1.460081190E-1,1.518969679E-1
9.135342500E-1,7.338866591E-3,-3.607104719E-2,1.507480145E-1,1.551771351E-1
9.235752500E-1,-2.967678010E-3,-3.837442771E-2,1.567968279E-1,1.614516926E-1
9.336152500E-1,-1.031374093E-2,-3.071411327E-2,1.578730047E-1,1.611633197E-1
9.436552500E-1,-1.386494935E-2,-2.281830832E-2,1.589546800E-1,1.611815818E-1
9.536952500E-1,-8.116250858E-3,-1.735323668E-2,1.637337208E-1,1.648506587E-1
9.637362500E-1,-7.977606729E-4,-1.452227775E-2,1.665979773E-1,1.672316328E-1
9.737762500E-1,8.277759887E-3,-1.105617359E-2,1.715575904E-1,1.721126581E-1
9.838162500E-1,1.538241841E-2,-9.815957397E-3,1.755469739E-1,1.764928097E-1
9.938562500E-1,2.039608546E-2,-9.387188591E-3,1.816634536E-1,1.830457046E-1
1.003866250E0,2.389175072E-2,-1.193632931E-2,1.884809583E-1,1.903637659E-1
1.013907250E0,2.641163394E-2,-8.360236883E-3,1.943417788E-1,1.963063803E-1
1.023947250E0,2.666836977E-2,-5.731952842E-3,2.024828792E-1,2.043119516E-1
1.033987250E0,3.230441734E-2,-3.238711506E-4,2.108750343E-1,2.133353238E-1
1.044027250E0,3.353039175E-2,3.230393864E-3,2.185931653E-1,2.211734490E-1
1.054068250E0,4.292096570E-2,1.132374071E-2,2.269011587E-1,2.312024485E-1
1.064108250E0,4.800840467E-2,1.042736787E-2,2.359294295E-1,2.409901090E-1
1.074148250E0,4.899963364E-2,6.965526380E-3,2.456893772E-1,2.506247249E-1
1.084189250E0,4.591915756E-2,7.442231290E-3,2.549499869E-1,2.591591242E-1
1.094229250E0,4.461900145E-2,9.591401555E-3,2.635821104E-1,2.675039798E-1
1.104269250E0,4.557415098E-2,1.054981444E-2,2.735503912E-1,2.775213836E-1
1.114309250E0,4.989646003E-2,1.095488202E-2,2.821185887E-1,2.867064078E-1
1.124350250E0,5.193192139E-2,5.199697800E-3,2.886303663E-1,2.933111823E-1
1.134390250E0,5.789234117E-2,6.050043739E-3,2.949956059E-1,3.006834444E-1
1.144430250E0,8.041696250E-2,-1.532248035E-2,3.085878491E-1,3.192618469E-1
1.154471250E0,8.215893805E-2,-4.575826693E-3,3.304776847E-1,3.405679512E-1
1.164511250E0,6.989745796E-2,2.053748071E-2,3.397307694E-1,3.474542249E-1
1.174521250E0,6.382278353E-2,1.931908354E-2,3.537256718E-1,3.599561439E-1
1.184561250E0,5.631481856E-2,3.080757335E-2,3.691602051E-1,3.746995095E-1
1.194601250E0,5.491559580E-2,3.505451605E-2,3.829205036E-1,3.884232921E-1
1.204641250E0,5.445879325E-2,3.637947142E-2,4.028549194E-1,4.081437396E-1
1.214682250E0,5.450193584E-2,4.425470531E-2,4.196520150E-1,4.254841403E-1
1.224722250E0,4.885894060E-2,5.380554870E-2,4.394143820E-1,4.453843646E-1
1.234762250E0,4.305964708E-2,5.715021119E-2,4.568048418E-1,4.623753273E-1
1.244803250E0,3.078693524E-2,6.128453463E-2,4.731247425E-1,4.780697141E-1
1.254843250E0,2.479721978E-2,7.056272030E-2,4.897577763E-1,4.954358475E-1
1.264883250E0,1.758660004E-2,6.832059473E-2,5.072959661E-1,5.121778885E-1
1.274923250E0,1.657033712E-2,6.957068294E-2,5.259447694E-1,5.307848495E-1
1.284964250E0,4.010680597E-3,7.570972294E-2,5.462757349E-1,5.515117644E-1
1.295004250E0,-5.984695628E-3,8.564171195E-2,5.668348074E-1,5.732992397E-1
1.305044250E0,-1.982962340E-2,7.510031015E-2,5.844339728E-1,5.895730143E-1
1.315085250E0,-3.841182962E-2,7.908519357E-2,6.050255299E-1,6.113802649E-1
1.325125250E0,-5.862799287E-2,8.191660792E-2,6.248126626E-1,6.328810596E-1
1.335165250E0,-7.641924173E-2,6.879813969E-2,6.429412961E-1,6.511118143E-1
1.345175250E0,-7.450037450E-2,5.783191696E-2,6.620123982E-1,6.686966815E-1
1.355215250E0,-6.957485527E-2,6.065540388E-2,6.840458512E-1,6.902452210E-1
1.365255250E0,-6.103193760E-2,4.795750231E-2,7.033641338E-1,7.076340327E-1
1.375296250E0,-4.948260635E-2,5.361139029E-2,7.242217660E-1,7.278872686E-1
1.385336250E0,-3.969786316E-2,5.571080744E-2,7.423294187E-1,7.454747348E-1
1.395376250E0,-3.966857120E-2,5.251128227E-2,7.613233328E-1,7.641624483E-1
1.405417250E0,-3.912782297E-2,5.466677994E-2,7.780066729E-1,7.809057730E-1
1.415457250E0,-3.691766411E-2,6.054677069E-2,7.949758172E-1,7.981324297E-1
1.425497250E0,-3.875639290E-2,5.503832176E-2,8.142052889E-1,8.169831867E-1
1.435537250E0,-3.653079271E-2,5.685806647E-2,8.280960917E-1,8.308492497E-1
1.445578250E0,-3.265480325E-2,5.735611916E-2,8.473303914E-1,8.498969660E-1
1.455618250E0,-2.674711123E-2,5.117439479E-2,8.598008752E-1,8.617376466E-1
1.465658250E0,-1.550789364E-2,4.199489579E-2,8.749215007E-1,8.760660354E-1
1.475699250E0,-1.504050940E-2,4.461438209E-2,8.934174180E-1,8.946571091E-1
1.485739250E0,-1.558754407E-2,4.881760105E-2,9.079695940E-1,9.094145993E-1
1.495779250E0,-1.530817896E-2,5.016995594E-2,9.222590327E-1,9.237494727E-1
1.505819250E0,-1.989792660E-2,4.475001991E-2,9.365802407E-1,9.378598185E-1
1.515829250E0,-1.820655167E-2,4.237767681E-2,9.521378875E-1,9.532543746E-1
1.525869250E0,-1.880837418E-2,3.617432714E-2,9.707059264E-1,9.715618006E-1
1.535910250E0,-1.787626743E-2,2.554059215E-2,9.848353267E-1,9.853286271E-1
1.545950250E0,-2.140031196E-2,1.845859736E-2,1.001812458E0,1.002211003E0
1.555990250E0,-2.724807896E-2,1.681382954E-2,1.018267632E0,1.018770893E0
1.566031250E0,-3.391331434E-2,2.379369922E-2,1.033963561E0,1.034793167E0
1.576071250E0,-4.427620769E-2,2.942282520E-2,1.051776648E0,1.053119272E0
1.586111250E0,-5.134246871E-2,3.913956881E-2,1.071371436E0,1.073314823E0
1.596151250E0,-6.045021489E-2,4.440090805E-2,1.089096665E0,1.091676333E0
1.606192250E0,-6.201731414E-2,4.864512756E-2,1.107979417E0,1.110779404E0
1.616232250E0,-6.513427943E-2,5.173039809E-2,1.127650857E0,1.130714360E0
1.626272250E0,-6.760799885E-2,5.674785376E-2,1.147695780E0,1.151085037E0
1.636318000E0,-6.820880622E-2,7.072173059E-2,1.164783478E0,1.168920252E0
1.646358000E0,-7.371677458E-2,7.700806856E-2,1.186958432E0,1.191736013E0
1.656398000E0,-8.429218084E-2,1.054375768E-1,1.207759857E0,1.215280267E0
1.666438000E0,-9.289364517E-2,1.097570136E-1,1.225435615E0,1.233842890E0
1.676479000E0,-9.850918502E-2,1.103591546E-1,1.244847178E0,1.253605879E0
1.686488000E0,-9.185551852E-2,8.520112187E-2,1.260422826E0,1.266634267E0
1.696529000E0,-7.923506945E-2,5.145141482E-2,1.276947260E0,1.280437327E0
1.706569000E0,-8.005798608E-2,5.900706351E-2,1.300228238E0,1.304026298E0
1.716609000E0,-7.623980939E-2,8.987150341E-2,1.328590751E0,1.333807624E0
1.726650000E0,-6.785345078E-2,1.069465876E-1,1.357427239E0,1.363323283E0
1.736690000E0,-7.212170213E-2,1.253929734E-1,1.377916813E0,1.385488968E0
1.746730000E0,-7.860071957E-2,1.473449618E-1,1.392230034E0,1.402210069E0
1.756770000E0,-7.537909597E-2,1.507713795E-1,1.402418971E0,1.412513004E0
1.766811000E0,-6.803745776E-2,1.511252820E-1,1.414798737E0,1.424473029E0
1.776851000E0,-7.108811289E-2,1.562966108E-1,1.422604442E0,1.432929010E0
1.786891000E0,-6.672842801E-2,1.602090895E-1,1.425217152E0,1.435744951E0
1.796932000E0,-5.482942238E-2,1.450418532E-1,1.428629756E0,1.437019967E0
1.806972000E0,-4.714546353E-2,1.453272104E-1,1.431207180E0,1.439338975E0
1.817012000E0,-4.134669900E-2,1.393036842E-1,1.421684504E0,1.429091282E0
1.827052000E0,-3.344691917E-2,1.398573220E-1,1.413855195E0,1.421149281E0
1.837093000E0,-2.860715985E-2,1.314009875E-1,1.401717305E0,1.408153398E0
1.847133000E0,-2.176125348E-2,1.214093789E-1,1.386056185E0,1.391533520E0
1.857143000E0,-1.477178466E-2,1.200447753E-1,1.374989867E0,1.380299275E0
1.867183000E0,-9.371776134E-3,1.188084632E-1,1.360541105E0,1.365750849E0
1.877223000E0,-3.788192756E-3,1.041458994E-1,1.345058799E0,1.349090023E0
1.887264000E0,-4.141623154E-3,1.130219102E-1,1.326944351E0,1.331755389E0
1.897304000E0,2.191374078E-3,9.404981881E-2,1.310424328E0,1.313796822E0
1.907344000E0,5.237839185E-3,9.419848025E-2,1.293607354E0,1.297043089E0
1.917384000E0,2.141787484E-2,7.022443414E-2,1.277104855E0,1.279213433E0
1.927425000E0,2.352762967E-2,6.794397533E-2,1.263211131E0,1.265255822E0
1.937465000E0,2.115608566E-2,6.814157963E-2,1.247373343E0,1.249412306E0
1.947505000E0,1.932090148E-2,6.851974875E-2,1.232355714E0,1.234410328E0
1.957546000E0,1.767986082E-2,6.028258801E-2,1.218224764E0,1.219843491E0
1.967586000E0,1.221771818E-2,5.688120425E-2,1.206095576E0,1.207497943E0
1.977626000E0,9.698634036E-3,5.133623630E-2,1.195497632E0,1.196638651E0
1.987666000E0,9.146294557E-3,4.827120155E-2,1.188127279E0,1.189142630E0
1.997707000E0,9.289469570E-3,4.546682537E-2,1.180739760E0,1.181651348E0
2.007747000E0,1.564961299E-2,4.036790133E-2,1.176887274E0,1.177683376E0
2.017757000E0,1.339950878E-2,4.308858514E-2,1.175325155E0,1.176191053E0
2.027797000E0,1.243694685E-2,4.267005995E-2,1.174130678E0,1.174971600E0
2.037837000E0,9.005463682E-3,4.798040166E-2,1.177609921E0,1.178621374E0
2.047878000E0,-4.868422635E-3,5.938416719E-2,1.179891467E0,1.181394961E0
2.057918000E0,-8.934802376E-3,6.236637384E-2,1.181474447E0,1.183153103E0
2.067958000E0,-1.207818277E-2,6.949274987E-2,1.190659642E0,1.192747043E0
2.077998000E0,-1.356156357E-2,7.697010785E-2,1.197057605E0,1.199606278E0
2.088039000E0,-1.188473590E-2,8.785294741E-2,1.201792717E0,1.205058140E0
2.098079000E0,-1.798013225E-3,8.699141443E-2,1.211191058E0,1.214312364E0
2.108119000E0,5.238870624E-3,8.670219779E-2,1.217448354E0,1.220542998E0
2.118160000E0,-2.958605066E-3,1.129103750E-1,1.222815156E0,1.228020526E0
2.128200000E0,-4.357418977E-3,1.205649525E-1,1.225479722E0,1.231403851E0
2.138240000E0,-7.975590415E-3,1.323928535E-1,1.230979919E0,1.238104616E0
2.148280000E0,-8.571217768E-3,1.350915432E-1,1.238511682E0,1.245886984E0
2.158321000E0,-6.947488524E-3,1.421707571E-1,1.239820600E0,1.247964707E0
2.168361000E0,-1.492490992E-3,1.421271563E-1,1.247231722E0,1.255304475E0
2.178401000E0,3.215711564E-3,1.447458416E-1,1.255210519E0,1.263532804E0
2.188411000E0,6.940630730E-3,1.472278684E-1,1.263455510E0,1.272023602E0
2.198451000E0,1.116813254E-2,1.417593211E-1,1.272892714E0,1.280810795E0
2.208492000E0,1.114194747E-2,1.349780262E-1,1.284274459E0,1.291396181E0
2.218532000E0,7.118443027E-3,1.300056428E-1,1.298925281E0,1.305434420E0
2.228572000E0,3.226788249E-3,1.255884767E-1,1.316876292E0,1.322855263E0
2.238612000E0,-4.850579426E-3,1.223338470E-1,1.339196682E0,1.344781340E0
2.248653000E0,-3.921645693E-3,1.101017520E-1,1.366023660E0,1.370459198E0
2.258693000E0,-1.848108135E-3,1.094777733E-1,1.396052122E0,1.400339361E0
2.268733000E0,1.016643085E-2,1.047362387E-1,1.429684997E0,1.433552310E0
2.278774000E0,2.108618990E-2,1.056984439E-1,1.462027431E0,1.465994883E0
2.288814000E0,3.505234048E-2,1.020973176E-1,1.495037317E0,1.498929321E0
2.298854000E0,4.036667943E-2,1.057173535E-1,1.530859470E0,1.535036269E0
2.308894000E0,4.754135385E-2,1.104738563E-1,1.566663384E0,1.571272991E0
2.318935000E0,5.156485736E-2,1.131239682E-1,1.603070974E0,1.607884485E0
2.328975000E0,4.698569700E-2,1.238422990E-1,1.639980912E0,1.645321234E0
2.339015000E0,4.834311083E-2,1.300727576E-1,1.674719691E0,1.680458873E0
2.349056000E0,4.802681506E-2,1.349932998E-1,1.708761334E0,1.714758019E0
2.359065000E0,4.452529177E-2,1.496880949E-1,1.738458276E0,1.745458737E0
2.369106000E0,4.582287744E-2,1.557095945E-1,1.769765139E0,1.777192691E0
2.379146000E0,4.552753270E-2,1.609994322E-1,1.790567279E0,1.798367247E0
2.389186000E0,4.554883391E-2,1.574867219E-1,1.807470202E0,1.814889886E0
2.399226000E0,5.128102005E-2,1.574600935E-1,1.827494264E0,1.834981937E0
2.409267000E0,5.179370195E-2,1.604718864E-1,1.841785550E0,1.849488531E0
2.419307000E0,5.184057355E-2,1.681646854E-1,1.851761699E0,1.860104351E0
2.429347000E0,5.752539635E-2,1.627289355E-1,1.857074142E0,1.865077544E0
2.439388000E0,5.818745866E-2,1.606410146E-1,1.858069897E0,1.865908641E0
2.449428000E0,5.884517729E-2,1.519518495E-1,1.857112408E0,1.864247466E0
2.459468000E0,6.014666334E-2,1.503094733E-1,1.851527452E0,1.858592066E0
2.469508000E0,6.175578386E-2,1.376872063E-1,1.847753406E0,1.853905119E0
2.479549000E0,5.827290565E-2,1.345127225E-1,1.838978887E0,1.844812389E0
2.489589000E0,6.465084851E-2,1.306614429E-1,1.833070159E0,1.838857894E0
2.499629000E0,6.488280743E-2,1.328124702E-1,1.825628757E0,1.831602929E0
2.509670000E0,6.261512637E-2,1.325142086E-1,1.818408132E0,1.824305019E0
2.519710000E0,6.001881510E-2,1.343131661E-1,1.810475945E0,1.816443072E0
2.529720000E0,6.342370808E-2,1.043199077E-1,1.807575941E0,1.811694233E0
2.539760000E0,6.076373905E-2,8.950048685E-2,1.809140801E0,1.812372205E0
2.549800000E0,5.425140634E-2,1.085875183E-1,1.800637007E0,1.804723828E0
2.559840000E0,5.482611805E-2,1.005967036E-1,1.792011499E0,1.795670018E0
2.569881000E0,5.260407552E-2,9.829203784E-2,1.791754842E0,1.795219743E0
2.579921000E0,3.831594810E-2,1.064809933E-1,1.788466334E0,1.792043008E0
2.589961000E0,3.267060220E-2,1.049391106E-1,1.787236214E0,1.790612428E0
2.600002000E0,1.920646057E-2,1.095224097E-1,1.781421304E0,1.784888206E0
2.610042000E0,1.420482062E-2,1.201396808E-1,1.777923107E0,1.782034201E0
2.620082000E0,7.003100589E-3,1.360371560E-1,1.773725748E0,1.778948617E0
2.630122000E0,2.838972025E-3,1.454176009E-1,1.770147681E0,1.776112933E0
2.640171375E0,1.147066243E-3,1.251275092E-1,1.767845631E0,1.772268711E0
2.650211375E0,-3.793310374E-3,1.011902690E-1,1.777070999E0,1.779953706E0
2.660251375E0,-6.539828144E-3,9.991966933E-2,1.775903583E0,1.778724331E0
2.670292375E0,-1.554760151E-3,1.016370356E-1,1.768751740E0,1.771670179E0
2.680332375E0,-1.944173127E-4,9.922447801E-2,1.762243867E0,1.765035122E0
2.690372375E0,2.653582953E-3,1.000335664E-1,1.758696795E0,1.761541419E0
2.700382375E0,3.348668106E-3,1.062123701E-1,1.756880522E0,1.760091318E0
2.710422375E0,-6.350101903E-4,9.865126759E-2,1.755494595E0,1.758264413E0
2.720463375E0,-1.652982086E-2,7.350649685E-2,1.760202527E0,1.761814229E0
2.730503375E0,-2.758503146E-2,6.220361590E-2,1.766672134E0,1.767982085E0
2.740543375E0,-3.269563615E-2,6.985621154E-2,1.767640471E0,1.769322393E0
2.750583375E0,-3.988786787E-2,6.868696213E-2,1.762781858E0,1.764570435E0
2.760624375E0,-4.603604227E-2,6.112704426E-2,1.770430684E0,1.772083700E0
2.770664375E0,-4.914182797E-2,5.940691754E-2,1.781180143E0,1.782847948E0
2.780704375E0,-4.804886505E-2,5.603163317E-2,1.792223573E0,1.793742895E0
2.790744375E0,-4.567890614E-2,5.577434227E-2,1.805964708E0,1.807403073E0
2.800785375E0,-3.836693242E-2,5.665319040E-2,1.824815154E0,1.826097465E0
2.810825375E0,-3.565164283E-2,5.380225927E-2,1.841586351E0,1.842717019E0
2.820865375E0,-3.388915956E-2,4.795981199E-2,1.860158682E0,1.861085420E0
2.830906375E0,-3.411021829E-2,4.651869833E-2,1.878481746E0,1.879367225E0
2.840946375E0,-4.521293938E-2,4.236496240E-2,1.901348472E0,1.902357750E0
2.850986375E0,-5.268755555E-2,3.371725976E-2,1.923981309E0,1.924997899E0
2.860996375E0,-5.680533499E-2,3.340407088E-2,1.944473624E0,1.945589976E0
2.871036375E0,-5.393198878E-2,2.534300275E-2,1.967855096E0,1.968757122E0
2.881077375E0,-4.812336713E-2,2.028193139E-2,1.987576962E0,1.988262908E0
2.891117375E0,-3.885393590E-2,2.160844952E-2,2.004087448E0,2.004580518E0
2.901157375E0,-2.678475529E-2,2.190592512E-2,2.020528793E0,2.020825054E0
2.911197375E0,-1.718016528E-2,3.162775189E-2,2.035105944E0,2.035424200E0
2.921238375E0,-1.191349700E-2,3.866302595E-2,2.053243876E0,2.053642416E0
2.931278375E0,-7.936657406E-3,5.206239969E-2,2.071239233E0,2.071908648E0
2.941318375E0,-2.565593459E-3,6.511855125E-2,2.089536428E0,2.090552437E0
2.951359375E0,-5.138149485E-3,6.169937178E-2,2.108677864E0,2.109586582E0
2.961399375E0,6.821307819E-3,6.969711185E-2,2.132723570E0,2.133873015E0
2.971439375E0,2.405570075E-2,6.899777055E-2,2.148655653E0,2.149897785E0
2.981479375E0,3.801172972E-2,6.904305518E-2,2.168849945E0,2.170281530E0
2.991520375E0,5.836513638E-2,7.193597406E-2,2.190637350E0,2.192595100E0
3.001560375E0,6.976000220E-2,6.891222298E-2,2.210593939E0,2.212767705E0
3.011600375E0,8.673435450E-2,6.871797144E-2,2.227914095E0,2.230660490E0
3.021640375E0,8.130523562E-2,6.365875900E-2,2.239368200E0,2.241747737E0
3.031650375E0,8.170320094E-2,6.895981729E-2,2.249348402E0,2.251887898E0
3.041691375E0,7.867278904E-2,7.662599534E-2,2.253233910E0,2.255908687E0
3.051731375E0,6.823343784E-2,7.316125929E-2,2.258365154E0,2.260579913E0
3.061771375E0,5.412134528E-2,7.843058556E-2,2.263477564E0,2.265482544E0
3.071811375E0,4.185717925E-2,7.598815113E-2,2.264329910E0,2.265991210E0
3.081852375E0,3.277792782E-2,6.595895439E-2,2.266865969E0,2.268062234E0
3.091892375E0,1.472139172E-2,6.083951145E-2,2.271118164E0,2.271980607E0
3.101932375E0,6.335363723E-3,4.891626909E-2,2.271393061E0,2.271928558E0
3.111973375E0,8.867161348E-3,2.938298881E-2,2.275612831E0,2.275819796E0
3.122013375E0,1.510082278E-2,1.917482540E-2,2.276404858E0,2.276535698E0
3.132053375E0,2.125953510E-2,2.406401932E-2,2.275198460E0,2.275425032E0
3.142093375E0,2.415731922E-2,3.272648156E-2,2.275777102E0,2.276140596E0
3.152134375E0,1.537599601E-2,4.219152406E-2,2.277672052E0,2.278114686E0
3.162174375E0,7.381719537E-3,6.159131974E-2,2.279455662E0,2.280299562E0
3.172214375E0,-4.542174749E-3,6.653827429E-2,2.283339262E0,2.284313061E0
3.182254375E0,-3.478242084E-3,6.030673906E-2,2.282754183E0,2.283553297E0
3.192295375E0,3.142921720E-3,6.057707593E-2,2.280771017E0,2.281577501E0
3.202305375E0,6.437784526E-3,5.450134352E-2,2.273658514E0,2.274320751E0
3.212345375E0,1.335974038E-2,5.509296432E-2,2.265520573E0,2.266229729E0
3.222385375E0,6.010215264E-3,7.123225927E-2,2.258533001E0,2.259664018E0
3.232425375E0,-2.780891955E-4,9.293271601E-2,2.248478413E0,2.250398129E0
3.242466375E0,1.185850240E-3,8.154770732E-2,2.237591505E0,2.239077305E0
3.252506375E0,2.217860892E-4,7.335822284E-2,2.233805418E0,2.235009647E0
3.262546375E0,-1.133763231E-3,8.249765635E-2,2.230055332E0,2.231581039E0
3.272587375E0,-6.133696996E-3,8.312924206E-2,2.230232716E0,2.231789878E0
3.282627375E0,-7.050623186E-3,8.430049568E-2,2.233853817E0,2.235455023E0
3.292667375E0,1.887627132E-2,5.357610434E-2,2.240613461E0,2.241333396E0
3.302707375E0,3.552049398E-2,3.965016827E-2,2.247135401E0,2.247765858E0
3.312748375E0,3.379550576E-2,3.792649508E-2,2.257581234E0,2.258152693E0
3.322788375E0,4.040600732E-2,4.172469676E-2,2.271320343E0,2.272062872E0
3.332828375E0,3.688669950E-2,4.308111966E-2,2.290215015E0,2.290917159E0
3.342869375E0,3.202110156E-2,4.300388694E-2,2.312844038E0,2.313465416E0
3.352909375E0,3.195033222E-2,4.015169665E-2,2.334323883E0,2.334887786E0
3.362949375E0,2.841765247E-2,3.649650887E-2,2.359851837E0,2.360305118E0
3.372959375E0,1.925656945E-2,3.820407391E-2,2.386107206E0,2.386490722E0
3.382999375E0,8.591143414E-3,3.616009653E-2,2.409348965E0,2.409635614E0
3.393039375E0,-2.686157823E-4,3.350470960E-2,2.429637909E0,2.429868928E0
3.403080375E0,9.335353971E-4,2.200011723E-2,2.446474314E0,2.446573409E0
3.413120375E0,-1.901876181E-3,9.608206339E-3,2.468458414E0,2.468477846E0
3.423160375E0,4.483638331E-4,-5.390984006E-3,2.490342379E0,2.490348254E0
3.433201375E0,6.858892739E-4,-1.280446257E-2,2.504186153E0,2.504218983E0
3.443241375E0,7.745662704E-3,-1.888126321E-2,2.519059658E0,2.519142326E0
3.453281375E0,2.754775435E-2,-4.073769599E-2,2.537257433E0,2.537733973E0
3.463321375E0,2.753710002E-2,-3.912222385E-2,2.555876255E0,2.556323976E0
3.473362375E0,2.522119135E-2,-3.191835433E-2,2.570935011E0,2.571256837E0
3.483402375E0,3.183382004E-2,-2.446522936E-2,2.582000971E0,2.582313101E0
3.493442375E0,3.418891877E-2,-1.381794084E-2,2.598262310E0,2.598523975E0
3.503483375E0,3.197450191E-2,-4.597278312E-3,2.612921953E0,2.613121627E0
3.513523375E0,2.897567675E-2,-6.539297290E-3,2.625961542E0,2.626129542E0
3.523563375E0,2.435908653E-2,-1.031645853E-2,2.629864693E0,2.629997737E0
3.533603375E0,2.761119977E-2,-3.475614265E-2,2.627867699E0,2.628242571E0
3.543613375E0,4.127082229E-2,-4.587856680E-2,2.616918087E0,2.617645583E0
3.553653375E0,2.597486041E-2,3.732455522E-2,2.604724169E0,2.605121074E0
3.563694375E0,7.932476699E-3,4.269899800E-4,2.596063852E0,2.596076007E0
3.573734375E0,-6.715063937E-3,-1.900420524E-3,2.582109928E0,2.582119359E0
3.583774375E0,-1.199211646E-2,1.243377663E-2,2.569343567E0,2.569401637E0
3.593815375E0,-1.364567410E-2,2.344062366E-2,2.559982300E0,2.560125982E0
3.603855375E0,-1.961967722E-2,3.232466429E-2,2.557311535E0,2.557591074E0
3.613895375E0,-2.565954812E-2,2.737534419E-2,2.562992096E0,2.563266725E0
3.623935375E0,-2.867131494E-2,2.333799005E-2,2.579417467E0,2.579682379E0
3.633976375E0,-2.727482654E-2,2.553422377E-2,2.599231243E0,2.599499753E0
3.643996292E0,-2.434028871E-2,1.768828556E-2,2.624692440E0,2.624864897E0
3.654036292E0,-2.429053932E-2,7.295516320E-3,2.655957937E0,2.656079031E0
3.664077292E0,-2.377574891E-2,-5.056224298E-3,2.691395760E0,2.691505524E0
3.674117292E0,-1.568878815E-2,4.965241067E-3,2.724466562E0,2.724516258E0
3.684157292E0,-2.033254504E-2,5.164711736E-3,2.760509253E0,2.760588963E0
3.694197292E0,-2.260671929E-2,-6.248970982E-3,2.791424990E0,2.791523524E0
3.704238292E0,-1.582924090E-2,-2.256003395E-2,2.813896656E0,2.814031612E0
3.714247292E0,-9.016036056E-3,-4.574059322E-2,2.830818653E0,2.831202525E0
3.724288292E0,-5.807460286E-3,-7.581833005E-2,2.841230154E0,2.842247515E0
3.734328292E0,-1.070437022E-3,-1.043271497E-1,2.848321676E0,2.850231863E0
3.744368292E0,-8.680373430E-4,-1.244031191E-1,2.860919237E0,2.863622840E0
3.754409292E0,2.178783529E-3,-1.090189368E-1,2.882104158E0,2.884166128E0
3.764449292E0,7.427874487E-3,-1.131527778E-2,2.911870003E0,2.911901462E0
3.774489292E0,-7.292281836E-3,3.818901628E-2,2.949457169E0,2.949713404E0
3.784529292E0,-4.149073362E-2,-1.111381873E-2,2.970334291E0,2.970644846E0
3.794570292E0,-7.067131251E-2,-4.147482663E-2,2.970744848E0,2.971874753E0
3.804610292E0,-6.279181689E-2,-1.850745827E-2,2.986670256E0,2.987387580E0
3.814650292E0,-6.553442031E-2,-1.199235115E-2,3.017140150E0,3.017875621E0
3.824691292E0,-7.430714369E-2,-2.796572447E-2,3.039567471E0,3.040604223E0
3.834731292E0,-7.910791785E-2,-2.780064382E-2,3.059836864E0,3.060985556E0
3.844771292E0,-8.446459472E-2,-3.300366178E-2,3.085773468E0,3.087105668E0
3.854811292E0,-8.793641627E-2,-3.572790325E-2,3.111039400E0,3.112487019E0
3.864852292E0,-9.370908141E-2,-4.495495930E-2,3.130642653E0,3.132367437E0
3.874892292E0,-9.494461119E-2,-4.834741354E-2,3.157001257E0,3.158798646E0
3.884902292E0,-9.843814373E-2,-4.587067664E-2,3.184783697E0,3.186634806E0
3.894942292E0,-9.950049967E-2,-4.529515654E-2,3.206565619E0,3.208428754E0
3.904982292E0,-1.033162773E-1,-3.908625990E-2,3.232533455E0,3.234420277E0
3.915023292E0,-1.069483012E-1,-4.430498183E-2,3.256386518E0,3.258443498E0
3.925063292E0,-1.146637425E-1,-5.892307311E-2,3.279579639E0,3.282112477E0
3.935103292E0,-1.260300875E-1,-4.223750159E-2,3.297785044E0,3.300462662E0
3.945143292E0,-1.208704785E-1,-2.055351064E-2,3.313018322E0,3.315286190E0
3.955184292E0,-1.098794565E-1,-9.549256414E-3,3.317607403E0,3.319440248E0
3.965224292E0,-1.112978533E-1,-3.559274133E-3,3.318371058E0,3.320238900E0
3.975264292E0,-1.097531915E-1,-5.423817784E-4,3.315257549E0,3.317073812E0
3.985305292E0,-1.024753079E-1,-1.143990085E-3,3.310236216E0,3.311822202E0
3.995345292E0,-1.009798869E-1,-9.800011292E-3,3.317960501E0,3.319511238E0
4.005385292E0,-1.050294861E-1,-1.773942821E-2,3.337284565E0,3.338983999E0
4.015425292E0,-1.099710241E-1,-2.548908256E-2,3.356761217E0,3.358658838E0
4.025466292E0,-9.957031161E-2,-3.404422104E-2,3.377157927E0,3.378796963E0
4.035506292E0,-1.057806462E-1,-2.642948553E-2,3.400941849E0,3.402689160E0
4.045546292E0,-1.101056188E-1,-1.832265407E-3,3.421191931E0,3.422963750E0
4.055556292E0,-1.248032451E-1,4.588729702E-3,3.440494776E0,3.442760696E0
4.065596292E0,-1.355624199E-1,9.212912992E-4,3.448541880E0,3.451205458E0
4.075637292E0,-1.273874044E-1,8.365510963E-3,3.453157187E0,3.455516182E0
4.085677292E0,-1.118531823E-1,2.061844990E-2,3.458689451E0,3.460559055E0
4.095717292E0,-1.271950901E-1,1.592149585E-2,3.466768026E0,3.469137160E0
4.105757292E0,-1.361433119E-1,1.632949337E-2,3.466112614E0,3.468823764E0
4.115798292E0,-1.358646303E-1,9.723367169E-3,3.466552019E0,3.469227096E0
4.125838292E0,-1.333141178E-1,-7.972959429E-5,3.465687752E0,3.468250892E0
4.135878292E0,-1.272304505E-1,-5.136610009E-3,3.467865467E0,3.470202425E0
4.145919292E0,-1.370130330E-1,4.722736776E-4,3.477130413E0,3.479828833E0
4.155959292E0,-1.377559900E-1,-4.380222876E-3,3.480973244E0,3.483700708E0
4.165999292E0,-1.304860860E-1,-3.259564750E-3,3.480357409E0,3.482804177E0
4.176039292E0,-1.185238138E-1,7.036377676E-3,3.475046158E0,3.477073943E0
4.186080292E0,-8.483322710E-2,5.823378637E-2,3.455321550E0,3.456853319E0
4.196120292E0,-3.437086567E-2,4.439733550E-2,3.454850197E0,3.455306406E0
4.206160292E0,-2.305722609E-2,7.055037469E-2,3.458108664E0,3.458905104E0
4.216170292E0,-3.268096596E-2,5.645889044E-2,3.451794863E0,3.452411248E0
4.226210292E0,-4.721037671E-2,3.961066902E-2,3.439896822E0,3.440448804E0
4.236251292E0,-5.115561187E-2,1.775218360E-2,3.435374737E0,3.435801452E0
4.246291292E0,-8.384712040E-3,1.334412023E-2,3.435242176E0,3.435278326E0
4.256331292E0,2.486432157E-2,5.241185427E-3,3.455537319E0,3.455630748E0
4.266371292E0,-2.726545744E-2,2.181084268E-2,3.471761465E0,3.471937037E0
4.276412292E0,-2.819366753E-2,2.993664518E-2,3.460664511E0,3.460908832E0
4.286452292E0,-1.400674134E-2,2.383880690E-2,3.460883379E0,3.460993823E0
4.296492292E0,-2.467185073E-2,3.130236641E-2,3.456446409E0,3.456676195E0
4.306533292E0,-3.359157592E-2,4.414759204E-2,3.455083132E0,3.455528447E0
4.316573292E0,-2.817114070E-2,4.409737140E-2,3.449351549E0,3.449748440E0
4.326613292E0,-3.104761988E-2,4.527528584E-2,3.445497751E0,3.445935078E0
4.336653292E0,-5.096846446E-2,5.317458138E-2,3.446274281E0,3.447061319E0
4.346694292E0,-4.360988364E-2,5.464730784E-2,3.437533855E0,3.438244779E0
4.356734292E0,-1.335114613E-2,5.428250879E-3,3.431001663E0,3.431031934E0
4.366774292E0,-1.560790837E-2,-2.425321192E-2,3.425389051E0,3.425510470E0
4.376815292E0,-1.214985829E-2,-2.730391547E-2,3.425926208E0,3.426056554E0
4.386824292E0,9.279000573E-3,-6.918159127E-2,3.424920082E0,3.425631294E0
4.396865292E0,1.597492397E-2,-6.651155651E-2,3.436785221E0,3.437465875E0
4.406905292E0,1.642739400E-2,-4.678392410E-2,3.447789669E0,3.448146197E0
4.416945292E0,2.235158347E-2,-2.090331353E-2,3.455207348E0,3.455342871E0
4.426985292E0,3.574808314E-2,-6.655402016E-3,3.462800980E0,3.462991892E0
4.437026292E0,4.252312705E-2,3.132476471E-3,3.468474865E0,3.468736934E0
4.447066292E0,5.136029422E-2,8.293744177E-4,3.462602615E0,3.462983604E0
4.457106292E0,4.872567952E-2,4.943125881E-3,3.455585957E0,3.455933004E0
4.467147292E0,2.396893688E-2,6.163385697E-3,3.456532955E0,3.456621554E0
4.477187292E0,-8.384209126E-3,6.051533855E-3,3.463793039E0,3.463808473E0
4.487227292E0,-9.458528832E-3,-2.732906118E-2,3.483219385E0,3.483339436E0
4.497267292E0,-7.891258225E-3,-5.885476246E-2,3.510597706E0,3.511099886E0
4.507308292E0,-2.505107038E-2,-5.641210824E-2,3.540137529E0,3.540675587E0
4.517348292E0,-2.005577832E-2,-5.430794507E-2,3.558971167E0,3.559442000E0
4.527388292E0,-2.009412833E-2,-2.528987825E-2,3.567359209E0,3.567505442E0
4.537429292E0,-3.019789420E-2,6.989232264E-3,3.563975096E0,3.564109881E0
4.547469292E0,-3.483579308E-2,1.985096931E-2,3.561605692E0,3.561831369E0
4.557479292E0,-5.193603784E-2,3.795422986E-2,3.558764935E0,3.559346251E0
4.567519292E0,-3.279510140E-2,1.890517026E-2,3.555878639E0,3.556080120E0
4.577559292E0,7.846584544E-3,-7.853662968E-2,3.569858313E0,3.570730730E0
4.587599292E0,-1.771656610E-2,-4.145291075E-2,3.579004765E0,3.579288662E0
4.597640292E0,-1.393819414E-2,-4.962518066E-2,3.571991444E0,3.572363336E0
4.607680292E0,1.178474538E-2,-8.666522056E-2,3.573257685E0,3.574327940E0
4.617720292E0,2.319284715E-2,-9.317650646E-2,3.585942984E0,3.587228297E0
4.627761292E0,1.327417046E-2,-8.788986504E-2,3.580253601E0,3.581356821E0
4.637801292E0,2.026415244E-2,-1.119989306E-1,3.568725824E0,3.570540352E0
4.647851917E0,9.309770539E-3,-1.203474104E-1,3.567631960E0,3.569673371E0
4.657891917E0,-4.761260934E-3,-1.221075580E-1,3.564096689E0,3.566190984E0
4.667932917E0,-1.557502616E-2,-1.305724084E-1,3.565165758E0,3.567590029E0
4.677972917E0,-3.431144357E-2,-1.245876104E-1,3.570630789E0,3.572968455E0
4.688012917E0,-5.149229616E-2,-1.207830161E-1,3.585646391E0,3.588049614E0
4.698053917E0,-6.013897434E-2,-1.231097877E-1,3.609306574E0,3.611906236E0
4.708093917E0,-7.393015921E-2,-9.266666323E-2,3.638449192E0,3.640379829E0
4.718133917E0,-8.448550850E-2,-7.214750350E-2,3.666002274E0,3.667685337E0
4.728143917E0,-8.431612700E-2,-5.320150405E-2,3.695094824E0,3.696439553E0
4.738183917E0,-9.029251337E-2,-3.963849042E-3,3.719032764E0,3.720130798E0
4.748224917E0,-9.062993526E-2,1.746820658E-2,3.734282017E0,3.735422480E0
4.758264917E0,-9.784305841E-2,4.772276431E-2,3.749382496E0,3.750962520E0
4.768304917E0,-1.133186817E-1,6.594303995E-2,3.756264448E0,3.758551877E0
4.778344917E0,-1.324486732E-1,9.703417867E-2,3.750442982E0,3.754035274E0
4.788385917E0,-1.267074347E-1,1.010235995E-1,3.736612558E0,3.740124858E0
4.798425917E0,-1.174888313E-1,1.064314544E-1,3.734928608E0,3.738291453E0
4.808465917E0,-1.100506186E-1,1.079787537E-1,3.749535084E0,3.752703545E0
4.818505917E0,-9.002943337E-2,8.413099498E-2,3.759721041E0,3.761739708E0
4.828546917E0,-7.838796079E-2,6.599646807E-2,3.775875092E0,3.777265269E0
4.838586917E0,-6.305667758E-2,3.021003678E-2,3.800011873E0,3.800655079E0
4.848626917E0,-6.590040028E-2,1.157217380E-2,3.816383362E0,3.816969838E0
4.858667917E0,-7.435651124E-2,6.041259505E-3,3.820347548E0,3.821075866E0
4.868707917E0,-8.466933668E-2,-2.774626389E-2,3.811407566E0,3.812448870E0
4.878747917E0,-1.047077850E-1,-2.238511667E-2,3.808914423E0,3.810419123E0
4.888787917E0,-1.243307590E-1,-4.540574551E-2,3.814071417E0,3.816367460E0
4.898797917E0,-1.325985342E-1,-6.873603165E-2,3.828118801E0,3.831031267E0
4.908838917E0,-1.327529997E-1,-8.177806437E-2,3.842941523E0,3.846103295E0
4.918878917E0,-1.205395982E-1,-9.379065782E-2,3.857500315E0,3.860522654E0
4.928918917E0,-1.190248057E-1,-7.952303439E-2,3.864867926E0,3.867517925E0
4.938958917E0,-1.120045483E-1,-7.568023354E-2,3.876986742E0,3.879342562E0
4.948999917E0,-1.187322289E-1,-7.234595716E-2,3.893570423E0,3.896052094E0
4.959039917E0,-1.267384291E-1,-3.782255203E-2,3.900357723E0,3.902599588E0
4.969079917E0,-1.282159388E-1,-1.199787669E-2,3.902418852E0,3.904543017E0
4.979119917E0,-1.116652489E-1,2.609482035E-3,3.911575079E0,3.913169500E0
4.989160917E0,-1.030653715E-1,2.825146355E-2,3.920114040E0,3.921570439E0
4.999200917E0,-8.756794035E-2,-7.495256141E-4,3.930276394E0,3.931251867E0
5.009240917E0,-7.030399889E-2,1.467337366E-2,3.941189289E0,3.941843601E0
5.019281917E0,-3.439909592E-2,3.555096686E-3,3.949375629E0,3.949527035E0
5.029321917E0,-2.250248939E-2,-2.495072782E-3,3.958714724E0,3.958779465E0
5.039361917E0,-1.882593334E-2,-1.458310895E-2,3.960374117E0,3.960445711E0
5.049401917E0,-2.250375971E-2,-1.082405727E-2,3.962705851E0,3.962784531E0
5.059442917E0,-1.271301880E-2,3.087974899E-2,3.967115164E0,3.967255714E0
5.069452917E0,-1.041684113E-2,5.660242587E-2,3.980270624E0,3.980686698E0
5.079492917E0,-1.270509139E-2,7.068103552E-2,4.011341572E0,4.011984351E0
5.089532917E0,-1.575946994E-2,1.020117924E-1,4.043207169E0,4.044524567E0
5.099572917E0,-1.730147749E-2,1.144849136E-1,4.076079369E0,4.077723526E0
5.109613917E0,-7.781210355E-3,1.222584173E-1,4.101026058E0,4.102855396E0
5.119653917E0,-8.777743205E-3,1.277042329E-1,4.123178005E0,4.125164516E0
5.129693917E0,-2.556284890E-2,1.249398738E-1,4.131627560E0,4.133595254E0
5.139734917E0,-1.062515937E-2,1.248898730E-1,4.117456436E0,4.119363771E0
5.149774917E0,1.013817638E-2,1.080078334E-1,4.097258091E0,4.098693980E0
5.159814917E0,2.130226791E-2,5.057187006E-2,4.074603081E0,4.074972585E0
5.169854917E0,1.289466955E-2,4.595448077E-2,4.064466953E0,4.064747188E0
5.179895917E0,-7.986517623E-3,6.985212862E-2,4.060496330E0,4.061104967E0
5.189935917E0,1.045107935E-2,7.319092751E-2,4.047367573E0,4.048042787E0
5.199975917E0,2.523400076E-2,6.785950065E-2,4.047140598E0,4.047788123E0
5.210015917E0,1.868235692E-2,8.720470220E-2,4.065767765E0,4.066745776E0
5.220056917E0,7.922323421E-3,1.205712482E-1,4.086028576E0,4.087814784E0
5.230096917E0,8.664546534E-3,1.250533611E-1,4.098707199E0,4.100623626E0
5.240106917E0,-2.618717588E-2,1.463356763E-1,4.111793041E0,4.114479543E0
5.250146917E0,-4.559336603E-2,1.858090460E-1,4.122836590E0,4.127273350E0
5.260186917E0,-5.289105326E-2,1.750215292E-1,4.125767231E0,4.129816611E0
5.270227917E0,-7.769093663E-2,1.773944199E-1,4.131053448E0,4.135590315E0
5.280267917E0,-3.555805609E-2,1.067567766E-1,4.149731159E0,4.151256446E0
5.290307917E0,-5.319856852E-2,9.916650504E-2,4.179967880E0,4.181482460E0
5.300348917E0,-5.931318551E-2,8.787536621E-2,4.216405392E0,4.217738086E0
5.310388917E0,-4.053816944E-2,1.053052247E-1,4.267080784E0,4.268572472E0
5.320428917E0,-1.210235618E-2,1.225377694E-1,4.327649593E0,4.329400995E0
5.330468917E0,3.585691378E-2,1.757767498E-1,4.375424862E0,4.379101039E0
5.340509917E0,7.652415335E-2,1.827010363E-1,4.415228844E0,4.419669824E0
5.350549917E0,1.057534069E-1,1.678328812E-1,4.441098213E0,4.445526403E0
5.360589917E0,1.232696921E-1,1.489166170E-1,4.473947525E0,4.478122155E0
5.370630917E0,1.259546876E-1,1.254206002E-1,4.505390167E0,4.508895150E0
5.380670917E0,1.301958561E-1,1.139223874E-1,4.544148922E0,4.547440895E0
5.390710917E0,1.272083223E-1,1.036766768E-1,4.599010468E0,4.601937428E0
5.400750917E0,1.286654472E-1,8.632128686E-2,4.662992001E0,4.665565406E0
5.410760917E0,1.317414045E-1,5.508933216E-2,4.735612392E0,4.737764807E0
5.420800917E0,1.217164099E-1,6.467086822E-2,4.810990810E0,4.812964760E0
5.430841917E0,1.165836975E-1,5.837462842E-2,4.893482685E0,4.895219315E0
5.440881917E0,1.212759092E-1,1.635040715E-2,4.962517262E0,4.964025861E0
5.450921917E0,1.243095174E-1,3.068407439E-2,5.010411739E0,5.012047502E0
5.460962917E0,1.409891844E-1,4.064438492E-2,5.047445297E0,5.049577601E0
5.471002917E0,1.433988065E-1,1.178397425E-2,5.101497650E0,5.103526267E0
5.481042917E0,8.506395668E-2,-9.900842607E-2,5.165835381E0,5.167484274E0
5.491082917E0,1.333597396E-2,-1.878876984E-1,5.230047226E0,5.233438031E0
5.501123917E0,-9.490918368E-3,-1.940798610E-1,5.305797100E0,5.309354004E0
5.511163917E0,-6.629587710E-2,-2.757174671E-1,5.375335217E0,5.382810043E0
5.521203917E0,-1.277569532E-1,-3.328669667E-1,5.412223816E0,5.423955097E0
5.531244917E0,-1.450536549E-1,-3.501256108E-1,5.427996159E0,5.441210417E0
5.541284917E0,-1.772489250E-1,-3.566159308E-1,5.451413631E0,5.465940238E0
5.551324917E0,-2.160940617E-1,-3.785039186E-1,5.501976013E0,5.519212073E0
5.561364917E0,-2.424402237E-1,-3.937323093E-1,5.566584587E0,5.585755666E0
5.571405917E0,-2.704838514E-1,-4.018184543E-1,5.601239681E0,5.622144213E0
5.581414917E0,-3.003431261E-1,-4.175379276E-1,5.587466240E0,5.611089279E0
5.591455917E0,-3.479167521E-1,-4.305557311E-1,5.562952995E0,5.590426668E0
5.601495917E0,-3.804156780E-1,-4.307294786E-1,5.567117214E0,5.596698853E0
5.611535917E0,-4.105083346E-1,-4.268308580E-1,5.604732990E0,5.635932360E0
5.621576917E0,-4.341347218E-1,-3.982132375E-1,5.651762009E0,5.682381591E0
5.631616917E0,-4.155812860E-1,-3.709722757E-1,5.680405617E0,5.707655929E0
5.641663250E0,-3.526871204E-1,-3.229047358E-1,5.684476852E0,5.704553686E0
5.651703250E0,-3.374085426E-1,-1.957971156E-1,5.673315048E0,5.686711235E0
5.661744250E0,-4.605236351E-1,-8.678899147E-3,5.624475956E0,5.643304628E0
5.671784250E0,-6.407876611E-1,-2.538357675E-2,5.572724342E0,5.609501738E0
5.681824250E0,-7.056357861E-1,5.673243850E-2,5.555641174E0,5.600561516E0
5.691865250E0,-6.239108443E-1,1.510581374E-1,5.527624607E0,5.564774667E0
5.701905250E0,-5.380691886E-1,2.096860409E-1,5.520503044E0,5.550625239E0
5.711945250E0,-6.116227508E-1,1.784974933E-1,5.505703449E0,5.542446591E0
5.721985250E0,-5.894944668E-1,1.874791831E-1,5.478173256E0,5.512987792E0
5.732026250E0,-5.324751139E-1,1.333890557E-1,5.477489471E0,5.504926275E0
5.742066250E0,-4.382439852E-1,5.288240314E-2,5.499178410E0,5.516866640E0
5.752076250E0,-4.035736322E-1,4.851428419E-2,5.539669514E0,5.554562416E0
5.762116250E0,-3.746689260E-1,1.090747491E-2,5.551001549E0,5.563642150E0
5.772156250E0,-3.262436092E-1,-4.785064608E-2,5.553661346E0,5.563441285E0
5.782197250E0,-2.901220918E-1,-7.031494379E-2,5.544806004E0,5.552836089E0
5.792237250E0,-2.493198216E-1,-5.098545179E-2,5.526675224E0,5.532530969E0
5.802277250E0,-2.462990582E-1,-6.275215000E-2,5.534186840E0,5.540020310E0
5.812317250E0,-2.922984958E-1,-7.832604647E-2,5.564278603E0,5.572501211E0
5.822358250E0,-3.166128397E-1,-6.539081782E-2,5.606690884E0,5.616004123E0
5.832398250E0,-3.067199886E-1,-7.664214075E-2,5.679154873E0,5.687947894E0
5.842438250E0,-1.967355907E-1,-1.623685807E-1,5.760333061E0,5.765978271E0
5.852479250E0,-1.284577399E-1,-2.173538059E-1,5.799349308E0,5.804842501E0
5.862519250E0,-1.506405324E-1,-6.368329376E-2,5.825946808E0,5.828241960E0
5.872559250E0,-1.295733303E-1,-4.522945359E-2,5.813114643E0,5.814734457E0
5.882599250E0,-4.407111928E-2,-5.963672698E-2,5.818017006E0,5.818489553E0
5.892640250E0,3.355123848E-2,-1.704700291E-1,5.834192753E0,5.836779146E0
5.902680250E0,1.962540299E-2,-2.375488281E-1,5.876853943E0,5.881685717E0
5.912720250E0,-2.212470770E-2,-2.362342924E-1,5.942865372E0,5.947599934E0
5.922730250E0,-7.631333545E-3,-2.531366348E-1,5.992906570E0,5.998255209E0
5.932770250E0,-1.395025551E-1,-1.777100414E-1,6.032261848E0,6.036491102E0
5.942811250E0,-1.285743862E-1,-1.786181331E-1,6.075633049E0,6.079617813E0
5.952851250E0,-1.480402201E-1,-8.036134392E-2,6.112573624E0,6.114894125E0
5.962891250E0,-1.449618787E-1,-8.231956512E-2,6.155146599E0,6.157403683E0
5.972931250E0,-5.486315116E-2,-1.190743819E-1,6.204581261E0,6.205966266E0
5.982972250E0,3.289185837E-2,-1.880809218E-1,6.232644081E0,6.235568021E0
5.993012250E0,3.856252879E-2,-1.970829368E-1,6.220774174E0,6.224014787E0
6.003052250E0,4.898249358E-2,-2.520888746E-1,6.204667091E0,6.209979211E0
6.013093250E0,-3.831006959E-2,-1.511739939E-1,6.221003056E0,6.222957517E0
6.023133250E0,-4.796487838E-2,-1.597389877E-1,6.273862362E0,6.276078880E0
6.033173250E0,-1.040190905E-1,-4.246857949E-3,6.368525505E0,6.369376352E0
6.043213250E0,-1.039294451E-1,7.750914991E-2,6.411840439E0,6.413151083E0
6.053254250E0,-7.655401528E-2,1.370092332E-1,6.413766384E0,6.415686345E0
6.063294250E0,-8.004918694E-2,2.121526003E-1,6.399392128E0,6.403408171E0
6.073334250E0,-8.860059083E-2,2.409504205E-1,6.391915321E0,6.397068754E0
6.083375250E0,-9.379238635E-2,2.455711365E-1,6.427650928E0,6.433024068E0
6.093384250E0,-1.136624962E-1,2.647368312E-1,6.476877689E0,6.483282298E0
6.103425250E0,-1.456615776E-1,3.033437729E-1,6.505780697E0,6.514477509E0
6.113465250E0,-1.391450912E-1,3.204386234E-1,6.482025623E0,6.491432696E0
6.123505250E0,-1.128403544E-1,3.904215991E-1,6.438557625E0,6.451370882E0
6.133545250E0,-1.113103703E-1,4.697640836E-1,6.398050785E0,6.416238940E0
6.143586250E0,-1.919383556E-2,4.476805925E-1,6.392748356E0,6.408433339E0
6.153626250E0,2.588868700E-2,4.715220034E-1,6.408765316E0,6.426140062E0
6.163666250E0,6.661295891E-2,4.548901618E-1,6.436731815E0,6.453129381E0
6.173707250E0,8.231602609E-2,4.426595867E-1,6.459228992E0,6.474902518E0
6.183747250E0,7.683460414E-2,3.975158632E-1,6.483754635E0,6.496383346E0
6.193787250E0,1.258567423E-1,2.719651163E-1,6.487419605E0,6.494337386E0
6.203827250E0,1.219557673E-1,2.076992095E-1,6.503695965E0,6.508154375E0
6.213868250E0,8.491945267E-2,1.318353415E-1,6.527646542E0,6.529529940E0
6.223908250E0,1.553136855E-2,1.134495214E-1,6.539212227E0,6.540214719E0
6.233948250E0,-6.425720453E-2,1.050003767E-1,6.524733543E0,6.525894719E0
6.243989250E0,-3.160813451E-1,2.590069175E-1,6.499416828E0,6.512250848E0
6.254029250E0,-4.246629477E-1,4.959475696E-1,6.375149727E0,6.408497223E0
6.264039250E0,-3.169555366E-1,1.398335993E-1,6.348215580E0,6.357661150E0
6.274079250E0,-1.374507695E-1,-1.391218603E-1,6.417174816E0,6.420154221E0
6.284119250E0,-1.830889881E-1,-1.623173356E-1,6.422819138E0,6.427478057E0
6.294159250E0,-2.279962748E-1,-1.708855331E-1,6.414213181E0,6.420538520E0
6.304200250E0,-2.277998477E-1,-2.137615234E-1,6.362340927E0,6.370005403E0
6.314240250E0,-2.510591149E-1,-2.427135408E-1,6.317181587E0,6.326825724E0
6.324280250E0,-3.009679914E-1,-2.085183561E-1,6.291993618E0,6.302637966E0
6.334321250E0,-4.169678390E-1,-1.310989261E-1,6.273468971E0,6.288677289E0
6.344361250E0,-4.583259523E-1,5.625195801E-2,6.269883156E0,6.286864222E0
6.354401250E0,-5.088053942E-1,2.295640856E-1,6.260150909E0,6.284987829E0
6.364441250E0,-5.666297078E-1,3.800531328E-1,6.245147228E0,6.282306385E0
6.374482250E0,-3.789127469E-1,2.727919221E-1,6.159844398E0,6.177513522E0
6.384522250E0,-3.634094074E-2,1.878927797E-1,6.125866890E0,6.128855482E0
6.394562250E0,-8.537505567E-2,5.400763750E-1,6.149497986E0,6.173758731E0
6.404603250E0,-1.679045707E-1,8.300901055E-1,6.153161526E0,6.211170444E0
6.414643250E0,-1.518292539E-2,6.871228218E-1,6.145808220E0,6.184118932E0
6.424683250E0,3.472461924E-2,4.771488905E-1,6.160645962E0,6.179193760E0
6.434693250E0,9.364519268E-2,4.466242790E-1,6.178922176E0,6.195750312E0
6.444733250E0,1.019961238E-1,5.971121788E-1,6.211705208E0,6.241171985E0
6.454773250E0,8.241203427E-2,7.583042979E-1,6.255691528E0,6.302022981E0
6.464814250E0,1.248800755E-1,8.011389375E-1,6.279139996E0,6.331272993E0
6.474854250E0,1.482935250E-1,6.964039803E-1,6.299025536E0,6.339139703E0
6.484894250E0,1.482408792E-1,6.571959853E-1,6.347929001E0,6.383579288E0
6.494935250E0,1.718884259E-1,6.888157129E-1,6.387545586E0,6.426877261E0
6.504975250E0,2.280411720E-1,6.890863776E-1,6.385966778E0,6.427084448E0
6.515015250E0,2.430398315E-1,6.187933087E-1,6.397643566E0,6.432092717E0
6.525055250E0,2.549647689E-1,4.982193410E-1,6.447930336E0,6.472173913E0
6.535096250E0,3.147961199E-1,4.488275647E-1,6.515185833E0,6.538209940E0
6.545136250E0,3.794978857E-1,4.561173320E-1,6.588551998E0,6.615215726E0
6.555176250E0,4.115484953E-1,4.236581922E-1,6.643026829E0,6.669232630E0
6.565217250E0,4.416686893E-1,1.998169422E-1,6.700613976E0,6.718126650E0
6.575257250E0,4.204590023E-1,6.774652749E-2,6.786212444E0,6.799562832E0
6.585297250E0,4.473007321E-1,1.169408113E-1,6.845250130E0,6.860845607E0
6.595337250E0,3.499949574E-1,8.359803259E-2,6.840834618E0,6.850292210E0
6.605347250E0,2.339275628E-1,1.597173363E-1,6.795127392E0,6.801028452E0
6.615387250E0,1.630706936E-1,3.590589464E-1,6.837785721E0,6.849148045E0
6.625428250E0,2.207146585E-1,2.681652904E-1,6.967751503E0,6.976402267E0
6.635468250E0,3.150627017E-1,2.268503159E-1,7.104689598E0,7.115289162E0
6.645516792E0,2.894646823E-1,9.923271090E-2,7.205307007E0,7.211801855E0
6.655557792E0,2.807665169E-1,2.294379286E-2,7.290969849E0,7.296409911E0
6.665597792E0,2.205037177E-1,-1.118818671E-2,7.369547844E0,7.372854433E0
6.675637792E0,1.052724570E-1,2.149519138E-2,7.439074993E0,7.439850878E0
6.685677792E0,5.721456930E-2,7.264386863E-2,7.494568825E0,7.495139259E0
6.695718792E0,-4.474893212E-3,2.489054501E-1,7.527620316E0,7.531735628E0
6.705758792E0,-8.076380193E-2,2.840009630E-1,7.595300674E0,7.601037539E0
6.715798792E0,-1.109544635E-1,1.761615574E-1,7.659824371E0,7.662653143E0
6.725839792E0,-1.323815584E-1,1.747927517E-1,7.707514763E0,7.710632996E0
6.735879792E0,-1.688322425E-1,2.542833388E-1,7.770810604E0,7.776802800E0
6.745919792E0,-1.936509460E-1,3.188940287E-1,7.836654663E0,7.845530600E0
6.755959792E0,-2.134547383E-1,3.028900027E-1,7.899664879E0,7.908350680E0
6.766000792E0,-1.931779683E-1,2.681984007E-1,7.941675186E0,7.948550363E0
6.776040792E0,-2.013024688E-1,2.094117701E-1,7.992545128E0,7.997821803E0
6.786050792E0,-1.915048510E-1,2.136471570E-1,8.073792458E0,8.078888777E0
6.796090792E0,-1.757522523E-1,3.088311851E-1,8.166070938E0,8.173798390E0
6.806130792E0,-1.394314617E-1,4.348422587E-1,8.235710144E0,8.248360473E0
6.816171792E0,-1.194391102E-1,4.751664996E-1,8.327687263E0,8.342087512E0
6.826211792E0,-2.366935462E-2,2.994036078E-1,8.408637047E0,8.413999034E0
6.836251792E0,-4.991720244E-2,2.393426448E-1,8.468596458E0,8.472125035E0
6.846291792E0,-9.564866126E-2,5.813514590E-1,8.500177383E0,8.520571209E0
6.856332792E0,-2.776547894E-2,5.769370198E-1,8.573246002E0,8.592681436E0
6.866372792E0,-1.658166572E-2,5.801138282E-1,8.603075027E0,8.622627612E0
6.876412792E0,3.583920002E-2,5.600653291E-1,8.614309311E0,8.632571026E0
6.886453792E0,1.332201660E-1,5.564961433E-1,8.619967461E0,8.638939437E0
6.896493792E0,2.268523723E-1,3.518865407E-1,8.604860306E0,8.615039583E0
6.906533792E0,2.098589689E-1,3.269992769E-1,8.566727638E0,8.575534487E0
6.916573792E0,2.561628222E-1,2.845857739E-1,8.567781448E0,8.576332981E0
6.926614792E0,2.102516145E-1,3.423186839E-1,8.632055283E0,8.641398395E0
6.936654792E0,2.325569093E-1,3.436556160E-1,8.694578171E0,8.704474221E0
6.946694792E0,2.450163811E-1,3.628638983E-1,8.729193687E0,8.740167371E0
6.956704792E0,3.067092896E-1,2.730096579E-1,8.744161606E0,8.753797293E0
6.966744792E0,3.171534836E-1,2.489563972E-1,8.804164886E0,8.813392364E0
6.976785792E0,3.124804497E-1,1.987052113E-1,8.883935928E0,8.891650318E0
6.986825792E0,3.390621543E-1,9.695824981E-2,8.933850288E0,8.940807851E0
6.996865792E0,3.266480863E-1,7.710944116E-2,8.937449455E0,8.943749080E0
7.006905792E0,2.786319256E-1,7.042816281E-2,8.877473831E0,8.882124605E0
7.016946792E0,1.105363965E-1,3.926544636E-2,8.847232819E0,8.848010433E0
7.026986792E0,1.065686718E-1,-7.108378410E-2,8.877947807E0,8.878871947E0
7.037026792E0,-6.424381584E-2,1.259643137E-1,8.903095245E0,8.904218058E0
7.047067792E0,-5.386178195E-2,7.358197868E-2,8.923008919E0,8.923474859E0
7.057107792E0,-4.866249114E-2,1.478274465E-1,8.913721085E0,8.915079616E0
7.067147792E0,-2.013561726E-1,2.062207162E-1,8.941258430E0,8.945902616E0
7.077187792E0,-3.199344575E-1,2.945372760E-1,8.962068558E0,8.972612947E0
7.087228792E0,-1.311403215E-1,8.169236779E-2,8.937288284E0,8.938623681E0
7.097268792E0,-1.063604131E-1,7.926649600E-2,8.943265915E0,8.944249602E0
7.107308792E0,-1.237750947E-1,9.721140563E-2,8.985445976E0,8.986824229E0
7.117349792E0,-9.278034419E-2,4.031348974E-3,9.047009468E0,9.047486102E0
7.127358792E0,-1.017860845E-1,2.574333921E-3,9.089145660E0,9.089715940E0
7.137399792E0,-2.038344294E-1,9.640362859E-2,9.120100975E0,9.122887916E0
7.147439792E0,-2.537856400E-1,2.228249311E-1,9.148351669E0,9.154583353E0
7.157479792E0,-2.126291543E-1,2.247338891E-1,9.156285286E0,9.161510613E0
7.167520792E0,-2.039170563E-1,1.666701138E-1,9.189271927E0,9.193045178E0
7.177560792E0,-2.627529204E-1,1.913661361E-1,9.260749817E0,9.266452788E0
7.187600792E0,-3.035632968E-1,1.158906668E-1,9.379245758E0,9.384872525E0
7.197640792E0,-3.592742085E-1,1.908783466E-1,9.431139946E0,9.439910655E0
7.207681792E0,-4.233052135E-1,1.260092407E-1,9.437185287E0,9.447514582E0
7.217721792E0,-4.762129188E-1,1.089777797E-1,9.445480347E0,9.458105195E0
7.227761792E0,-4.231112599E-1,1.731526256E-1,9.457704544E0,9.468747552E0
7.237801792E0,-2.910269797E-1,2.018545717E-1,9.504302979E0,9.510899909E0
7.247842792E0,-1.844676286E-1,1.511759013E-1,9.574717522E0,9.577687512E0
7.257882792E0,-1.183141768E-1,1.123954728E-1,9.683883667E0,9.685258585E0
7.267922792E0,1.312541962E-2,9.477211535E-2,9.752764702E0,9.753233995E0
7.277963792E0,8.166160434E-2,3.041176200E-1,9.770350456E0,9.775423478E0
7.288003792E0,8.326602168E-3,5.045880675E-1,9.808624268E0,9.821598061E0
7.298013792E0,-2.619648725E-2,3.682011366E-1,9.872333527E0,9.879232136E0
7.308053792E0,-7.290921174E-3,1.153661832E-1,9.906391144E0,9.907065560E0
7.318093792E0,-6.848038174E-3,1.130542904E-1,9.993506432E0,9.994148236E0
7.328134792E0,-1.896618120E-2,2.625916898E-1,1.009351921E1,1.009695222E1
7.338174792E0,-1.604125351E-1,2.726661563E-1,1.015789700E1,1.016282197E1
7.348214792E0,-2.046235353E-1,1.234142669E-2,1.021256351E1,1.021462073E1
7.358254792E0,-2.147962749E-1,1.105574816E-1,1.033713913E1,1.033996159E1
7.368295792E0,-2.120924741E-1,2.173991203E-1,1.047638607E1,1.048078769E1
7.378335792E0,-2.310342044E-1,1.460924447E-1,1.055074883E1,1.055428920E1
7.388375792E0,-1.859670877E-1,5.654170364E-2,1.055753040E1,1.055931953E1
7.398416792E0,-1.482354254E-1,1.333568543E-1,1.056322861E1,1.056511034E1
7.408456792E0,-3.909850419E-1,2.493254840E-1,1.065705681E1,1.066714078E1
7.418496792E0,-3.579373360E-1,3.601121902E-1,1.078780651E1,1.079974857E1
7.428536792E0,-4.129909873E-1,1.821158081E-1,1.089584064E1,1.090518551E1
7.438577792E0,-3.643673360E-1,1.835266501E-1,1.094403458E1,1.095163633E1
7.448617792E0,-3.229173720E-1,2.625279725E-1,1.098972130E1,1.099759841E1
7.458657792E0,-2.782143652E-1,2.117063403E-1,1.103219128E1,1.103772926E1
7.468697792E0,-2.347997874E-1,1.469593644E-1,1.109746456E1,1.110092103E1
7.478707792E0,-1.516556442E-1,9.186016023E-2,1.119744587E1,1.119884957E1
7.488748792E0,-4.595801607E-2,8.225392550E-2,1.130893230E1,1.130932481E1
7.498788792E0,6.682472676E-2,6.026796997E-3,1.134801483E1,1.134821318E1
7.508828792E0,1.613740027E-1,-1.027376764E-2,1.131386757E1,1.131502304E1
7.518868792E0,1.611071527E-1,1.855308861E-1,1.127702522E1,1.127970191E1
7.528909792E0,9.073093534E-2,3.678162694E-1,1.134981823E1,1.135613908E1
7.538949792E0,-2.871556208E-2,2.964350283E-1,1.145208168E1,1.145595361E1
7.548989792E0,-1.239924878E-1,3.309761286E-1,1.154216099E1,1.154757116E1
7.559030792E0,-1.343734860E-1,3.505676687E-1,1.157744312E1,1.158352896E1
7.569070792E0,-1.651595086E-1,4.159056544E-1,1.165628242E1,1.166486927E1
7.579110792E0,-2.028384358E-1,4.227310717E-1,1.177127743E1,1.178061192E1
7.589150792E0,-1.801366210E-1,3.481572866E-1,1.190409374E1,1.191054619E1
7.599191792E0,-1.509521008E-1,4.857729375E-1,1.193446827E1,1.194530430E1
7.609231792E0,-2.380766161E-2,5.460803509E-1,1.190401173E1,1.191655427E1
7.619271792E0,-2.441273071E-2,5.697934031E-1,1.194197464E1,1.195558526E1
7.629312792E0,-1.044699177E-1,6.179178357E-1,1.196534061E1,1.198174079E1
7.639352792E0,-3.432510421E-4,7.799482942E-1,1.202773380E1,1.205299547E1
7.649359292E0,1.872767061E-1,7.371702790E-1,1.213265419E1,1.215647113E1
7.659399292E0,3.633798361E-1,7.812165618E-1,1.220082474E1,1.223120879E1
7.669439292E0,2.032389194E-1,9.136495590E-1,1.219957256E1,1.223542530E1
7.679479292E0,1.559459716E-1,9.035692811E-1,1.216399860E1,1.219850887E1
7.689520292E0,1.077391207E-1,7.260172367E-1,1.219170475E1,1.221377802E1
7.699560292E0,-5.035065114E-2,7.330577970E-1,1.224732113E1,1.226934325E1
7.709600292E0,-2.671560049E-1,8.146236539E-1,1.225787354E1,1.228781704E1
7.719641292E0,-2.830236554E-1,7.548415661E-1,1.220970535E1,1.223629000E1
7.729681292E0,-8.042279631E-2,4.840317667E-1,1.217352962E1,1.218341406E1
7.739721292E0,2.844296396E-2,4.620415270E-1,1.223501301E1,1.224376718E1
7.749761292E0,-1.463484764E-2,5.785294771E-1,1.235520744E1,1.236875343E1
7.759802292E0,-1.187022030E-2,6.361307502E-1,1.242548180E1,1.244176037E1
7.769842292E0,4.359374940E-2,2.156404257E-1,1.244760323E1,1.244954727E1
7.779882292E0,-1.098472029E-1,3.428528458E-2,1.249614429E1,1.249667412E1
7.789923292E0,-3.658006787E-1,1.463361979E-1,1.257066822E1,1.257684078E1
7.799963292E0,-5.080299973E-1,2.284566313E-1,1.253675461E1,1.254912360E1
7.810003292E0,-6.634826064E-1,3.011692762E-1,1.254950428E1,1.257063920E1
7.820013292E0,-5.955336690E-1,3.208002448E-1,1.251427460E1,1.253254331E1
7.830053292E0,-7.659841180E-1,6.101096869E-1,1.259185410E1,1.262987550E1
7.840093292E0,-1.004896283E0,7.618715167E-1,1.278216362E1,1.284421938E1
7.850134292E0,-4.269657433E-1,3.027328849E-1,1.288877964E1,1.289940260E1
7.860174292E0,-3.947939575E-1,6.307104230E-1,1.294861698E1,1.296997840E1
7.870214292E0,-6.274425983E-1,3.974765241E-1,1.295586014E1,1.297713311E1
7.880255292E0,-4.504083991E-1,-1.318341941E-1,1.296704483E1,1.297553466E1
7.890295292E0,-2.825551629E-1,-8.386164904E-2,1.302425385E1,1.302758836E1
7.900335292E0,-1.764380485E-1,2.979433909E-2,1.316993713E1,1.317115265E1
7.910375292E0,-5.709826946E-1,8.209259510E-1,1.312814426E1,1.316617304E1
7.920416292E0,-8.670796156E-1,3.218413293E-1,1.309604359E1,1.312866202E1
7.930456292E0,-6.675558090E-1,5.129664540E-1,1.308261776E1,1.310967783E1
7.940496292E0,-3.843342364E-1,7.237830758E-1,1.305401516E1,1.307971278E1
7.950537292E0,-3.498527706E-1,4.933610857E-1,1.314837074E1,1.316227394E1
7.960577292E0,-5.693526268E-1,4.632692337E-1,1.322886372E1,1.324921190E1
7.970617292E0,-6.075999141E-1,5.636296868E-1,1.337806892E1,1.340371531E1
7.980657292E0,-6.012812853E-1,6.909386516E-1,1.342409039E1,1.345530149E1
7.990667292E0,-5.042534471E-1,8.115566969E-1,1.342757893E1,1.346152932E1
8.000707292E0,-4.132529497E-1,8.325684667E-1,1.341057301E1,1.344274587E1
8.010748292E0,-3.506160676E-1,8.540703058E-1,1.342582512E1,1.345753127E1
8.020788292E0,-2.370365262E-1,7.124098539E-1,1.348297215E1,1.350386063E1
8.030828292E0,5.603470653E-2,3.795825243E-1,1.367427731E1,1.367965945E1
8.040869292E0,1.546121389E-1,4.203757644E-1,1.376676273E1,1.377404722E1
8.050909292E0,1.814100295E-1,6.171613336E-1,1.374244499E1,1.375749222E1
8.060949292E0,2.789789438E-1,5.300083160E-1,1.368346405E1,1.369656623E1
8.070989292E0,3.047134578E-1,3.405160904E-1,1.365108776E1,1.365873342E1
8.081030292E0,2.245531082E-1,5.692443848E-1,1.371127892E1,1.372492742E1
8.091070292E0,-8.078733087E-2,4.480084181E-1,1.360724354E1,1.361485640E1
8.101110292E0,-4.377505183E-1,4.247396439E-2,1.343169212E1,1.343889069E1
8.111151292E0,-3.065480888E-1,-8.769677021E-3,1.347396374E1,1.347745330E1
8.121191292E0,-1.013798360E-2,2.075828612E-1,1.356502724E1,1.356661923E1
8.131231292E0,-1.365972776E-2,4.899567068E-1,1.373246765E1,1.374121217E1
8.141271292E0,7.693382353E-2,5.243564844E-1,1.371426105E1,1.372449725E1
8.151312292E0,1.823576838E-1,4.885429442E-1,1.365211391E1,1.366206949E1
8.161321292E0,2.118215561E-1,4.225295782E-1,1.369087124E1,1.369902752E1
8.171362292E0,1.040295437E-1,4.484438300E-1,1.368556976E1,1.369331018E1
8.181402292E0,-9.511578083E-2,5.464532375E-1,1.371681309E1,1.372802314E1
8.191442292E0,-4.102729857E-1,7.319456935E-1,1.372219658E1,1.374782701E1
8.201483292E0,-5.530623198E-1,4.334444702E-1,1.379122543E1,1.380911478E1
8.211523292E0,-5.083431005E-1,5.614692569E-1,1.377787685E1,1.379867932E1
8.221563292E0,-4.952360690E-1,6.061786413E-1,1.379540539E1,1.381759462E1
8.231603292E0,-5.433706641E-1,4.623119831E-1,1.370037365E1,1.371893663E1
8.241644292E0,-3.616106808E-1,3.343148530E-1,1.372958755E1,1.373841705E1
8.251684292E0,-2.380542159E-1,2.383769453E-1,1.380758572E1,1.381169492E1
8.261724292E0,1.133685336E-1,2.268816829E-1,1.387648964E1,1.387880731E1
8.271765292E0,2.229895592E-1,4.069281518E-1,1.400354671E1,1.401123247E1
8.281805292E0,1.773267388E-1,5.320339203E-1,1.408395100E1,1.409511194E1
8.291845292E0,2.856500447E-1,3.880079389E-1,1.406949711E1,1.407774467E1
8.301885292E0,3.793067634E-1,2.191829532E-1,1.414889717E1,1.415567752E1
8.311926292E0,3.537644148E-1,1.127139851E-1,1.428367996E1,1.428850471E1
8.321966292E0,3.700243533E-1,-1.135389879E-2,1.441208267E1,1.441683647E1
8.331976292E0,3.070940673E-1,-9.499542415E-2,1.452466393E1,1.452822057E1
8.342016292E0,2.692569196E-1,-1.370235682E-1,1.464099216E1,1.464410893E1
8.352056292E0,3.087275028E-1,-1.544104517E-1,1.479904175E1,1.480306698E1
8.362097292E0,-2.723427862E-2,-8.641356230E-2,1.499954891E1,1.499982255E1
8.372137292E0,-1.730465591E-1,-3.058261275E-1,1.515828800E1,1.516236030E1
8.382177292E0,-1.085812822E-1,-3.077715635E-1,1.523695374E1,1.524044856E1
8.392217292E0,-2.316608131E-1,-9.561488405E-3,1.531191254E1,1.531366787E1
8.402258292E0,-3.760707378E-1,2.333472967E-1,1.543572044E1,1.544206417E1
8.412298292E0,-9.676714242E-2,2.593499124E-1,1.560133743E1,1.560379300E1
8.422338292E0,-3.158094734E-2,2.333635986E-1,1.556147861E1,1.556326035E1
8.432379292E0,3.147907257E-1,-8.223809302E-2,1.559259319E1,1.559598727E1
8.442419292E0,4.940510392E-1,-1.001374573E-1,1.569793510E1,1.570602688E1
8.452459292E0,3.941836655E-1,3.853765726E-1,1.583539009E1,1.584498265E1
8.462499292E0,2.373202890E-1,7.277890444E-1,1.597140026E1,1.598973496E1
8.472540292E0,5.026269332E-2,9.587793946E-1,1.610509491E1,1.613368731E1
8.482580292E0,2.284918129E-1,4.982090890E-1,1.610831070E1,1.611763303E1
8.492620292E0,4.378969967E-1,3.701460660E-1,1.608321381E1,1.609343121E1
8.502661292E0,5.026312470E-1,5.071957707E-1,1.606503487E1,1.608089646E1
8.512670292E0,6.288117766E-1,4.983925447E-2,1.603873444E1,1.605113362E1
8.522711292E0,5.376568437E-1,-2.929327488E-1,1.598270798E1,1.599443149E1
8.532751292E0,4.446116388E-1,-2.753501236E-1,1.606316757E1,1.607167850E1
8.542791292E0,4.001373649E-1,-4.071001709E-1,1.623719788E1,1.624722854E1
8.552831292E0,1.619954109E-1,-2.558512688E-1,1.637393761E1,1.637673762E1
8.562872292E0,1.867239326E-1,2.052180767E-1,1.643197632E1,1.643431854E1
8.572912292E0,3.625202775E-1,4.485445619E-1,1.640297890E1,1.641311457E1
8.582952292E0,3.156771064E-1,6.140733361E-1,1.639262772E1,1.640716251E1
8.592993292E0,5.750465989E-1,4.033950865E-1,1.633294868E1,1.634804633E1
8.603033292E0,6.078503728E-1,4.160440266E-1,1.632919121E1,1.634579641E1
8.613073292E0,4.626091719E-1,5.317332745E-1,1.633569336E1,1.635089065E1
8.623113292E0,4.220178127E-1,4.102342427E-1,1.626812172E1,1.627876456E1
8.633154292E0,3.239705265E-1,1.148397774E-1,1.624710274E1,1.625073821E1
8.643217917E0,4.143124223E-1,8.856615983E-3,1.623986435E1,1.624515089E1
8.653257917E0,3.505123556E-1,-9.852352738E-2,1.628594780E1,1.629001724E1
8.663298917E0,1.637360901E-1,-2.607417405E-1,1.628894043E1,1.629184999E1
8.673338917E0,-1.512219198E-2,-3.426646292E-1,1.625227356E1,1.625589258E1
8.683348917E0,-2.245039046E-1,-3.387391269E-1,1.628201103E1,1.628708167E1
8.693388917E0,-3.784237206E-1,-3.565734029E-1,1.628197670E1,1.629027668E1
8.703428917E0,-4.862766862E-1,-2.960967422E-1,1.639212608E1,1.640201012E1
8.713468917E0,-4.504293799E-1,-5.455176532E-2,1.637378883E1,1.638007397E1
8.723509917E0,-4.046613574E-1,2.198821902E-1,1.630734825E1,1.631385013E1
8.733549917E0,-4.973112643E-1,1.785830110E-1,1.635052490E1,1.635906094E1
8.743589917E0,-3.980853558E-1,4.494619071E-1,1.630019569E1,1.631124973E1
8.753630917E0,-2.466230541E-1,5.266624093E-1,1.630101013E1,1.631138031E1
8.763670917E0,-1.280737668E-1,4.905065596E-1,1.622669601E1,1.623461312E1
8.773710917E0,1.286222339E-1,3.496647775E-1,1.615486908E1,1.615916471E1
8.783750917E0,4.055235982E-1,3.704853952E-1,1.610051155E1,1.610987837E1
8.793791917E0,2.304514647E-1,4.093098640E-1,1.614057732E1,1.614741089E1
8.803831917E0,-4.597746208E-2,2.133488655E-1,1.620815468E1,1.620962399E1
8.813871917E0,-2.597007453E-1,-8.359475434E-2,1.634742737E1,1.634970379E1
8.823912917E0,-2.893593013E-1,4.108434618E-1,1.642644119E1,1.643412582E1
8.833952917E0,-4.588503838E-1,2.499572635E-1,1.646266365E1,1.647095373E1
8.843992917E0,-2.510593832E-1,-1.273340881E-1,1.647377586E1,1.647618087E1
8.854002917E0,3.969247639E-2,-2.230924666E-1,1.661820984E1,1.661975463E1
8.864042917E0,-2.135250345E-2,-2.481405586E-1,1.663111496E1,1.663297972E1
8.874082917E0,1.214566454E-1,2.350719273E-2,1.655507660E1,1.655553882E1
8.884123917E0,1.015095636E-1,1.283435971E-1,1.659012413E1,1.659093110E1
8.894163917E0,-2.646870911E-2,2.014669180E-1,1.672428322E1,1.672551759E1
8.904203917E0,-1.630505323E-1,2.912657857E-1,1.675514793E1,1.675847259E1
8.914244917E0,-2.921167016E-1,4.859140515E-1,1.679352760E1,1.680309537E1
8.924284917E0,1.143279765E-2,4.140182734E-1,1.684473801E1,1.684982909E1
8.934324917E0,-4.102310538E-2,5.288087130E-1,1.697808456E1,1.698636739E1
8.944364917E0,-2.530381680E-1,6.143603325E-1,1.702413177E1,1.703709276E1
8.954405917E0,-4.131182283E-2,7.662109733E-1,1.699036026E1,1.700767849E1
8.964445917E0,-4.659872502E-2,9.370641708E-1,1.693841171E1,1.696437597E1
8.974485917E0,-3.830714151E-3,1.187402129E0,1.692407417E1,1.696567786E1
8.984526917E0,-9.480669349E-2,1.438468695E0,1.706715775E1,1.712793198E1
8.994566917E0,8.938688040E-2,1.242604733E0,1.720179176E1,1.724684598E1
9.004606917E0,2.119372934E-1,9.208826423E-1,1.732700157E1,1.735274980E1
9.014646917E0,3.749354184E-2,7.560237646E-1,1.745098686E1,1.746739592E1
9.024687917E0,1.165526807E-1,4.133888483E-1,1.752287674E1,1.752813978E1
9.034696917E0,1.381600201E-1,2.708237991E-2,1.762714767E1,1.762770991E1
9.044737917E0,-2.335168719E-1,-4.641260952E-2,1.776899529E1,1.777059025E1
9.054777917E0,-3.467757404E-1,-2.818855345E-1,1.790182686E1,1.790740399E1
9.064817917E0,-5.451045632E-1,6.275121868E-2,1.790984344E1,1.791824681E1
9.074858917E0,-5.947408080E-1,3.389634788E-1,1.795105553E1,1.796410330E1
9.084898917E0,-4.259105325E-1,4.438142478E-1,1.795861244E1,1.796914388E1
9.094938917E0,-2.188577354E-1,5.846458673E-1,1.782860184E1,1.783952782E1
9.104978917E0,-1.582535058E-1,6.891040802E-1,1.787575150E1,1.788972890E1
9.115019917E0,1.487851441E-1,7.841191292E-1,1.793302345E1,1.795077463E1
9.125059917E0,1.009481177E-1,6.346755624E-1,1.794870186E1,1.796020328E1
9.135099917E0,6.459204853E-2,4.871732891E-1,1.805565643E1,1.806234313E1
9.145140917E0,1.706181467E-2,4.427882433E-1,1.822043800E1,1.822582546E1
9.155180917E0,8.356128633E-2,3.062179685E-1,1.837178230E1,1.837452413E1
9.165220917E0,1.875081956E-1,8.679987788E-1,1.859237671E1,1.861357174E1
9.175260917E0,-1.207889915E-1,5.184079409E-1,1.876118469E1,1.876873432E1
9.185301917E0,-4.679626524E-1,4.616641998E-1,1.885710907E1,1.886856342E1
9.195341917E0,-5.493872166E-1,6.187896132E-1,1.894698715E1,1.896504809E1
9.205351917E0,-4.855025411E-1,5.909931064E-1,1.890102959E1,1.891649822E1
9.215391917E0,-4.412719309E-1,5.600739717E-1,1.897073364E1,1.898412860E1
9.225431917E0,-3.302804530E-1,8.588079214E-1,1.909151840E1,1.911367864E1
9.235472917E0,-1.390604526E-1,1.010986805E0,1.921184921E1,1.923893402E1
9.245512917E0,9.330859780E-2,1.220030308E0,1.952524185E1,1.956354390E1
9.255552917E0,2.973636985E-1,1.301342964E0,1.971308136E1,1.975822602E1
9.265592917E0,2.971951067E-1,1.044750571E0,1.970410347E1,1.973401941E1
9.275633917E0,7.384684682E-2,5.185078382E-1,1.946577454E1,1.947281906E1
9.285673917E0,2.533409595E-1,4.737344682E-1,1.941377258E1,1.942120418E1
9.295713917E0,1.024880782E-1,4.853531718E-1,1.934243393E1,1.934879381E1
9.305754917E0,-1.027790606E-1,3.524944782E-1,1.933871078E1,1.934219612E1
9.315794917E0,-3.118122816E-1,5.162472129E-1,1.921949959E1,1.922896000E1
9.325834917E0,-2.972171009E-1,3.818174601E-1,1.926267624E1,1.926875238E1
9.335874917E0,-1.196510643E-1,3.935538232E-1,1.920813560E1,1.921253951E1
9.345915917E0,2.508351207E-1,3.076796532E-1,1.921895790E1,1.922305719E1
9.355955917E0,3.881017566E-1,3.669921756E-1,1.925810432E1,1.926551033E1
9.365995917E0,3.622699380E-1,2.603296638E-1,1.923323631E1,1.923840924E1
9.376005917E0,2.784982920E-1,-2.024907246E-2,1.923874474E1,1.924077104E1
9.386045917E0,3.213091195E-1,-2.440808415E-1,1.931282997E1,1.931704471E1
9.396086917E0,3.544982970E-1,-4.953049123E-1,1.937785339E1,1.938742371E1
9.406126917E0,6.322872639E-1,-6.030499935E-1,1.944315529E1,1.946277843E1
9.416166917E0,5.405412316E-1,-3.735869229E-1,1.956231880E1,1.957335099E1
9.426207917E0,3.237077594E-1,-3.115222156E-1,1.954968452E1,1.955484589E1
9.436247917E0,-1.496831626E-1,-6.523870677E-2,1.954790688E1,1.954858881E1
9.446287917E0,-2.995517254E-1,-5.073285103E-1,1.969866562E1,1.970747423E1
9.456327917E0,-2.047948390E-1,-2.354452163E-1,1.979761696E1,1.980007608E1
9.466368917E0,-4.244129658E-1,-3.784703016E-1,1.985058022E1,1.985872355E1
9.476408917E0,-6.004453897E-1,-1.892917305E-1,1.984134865E1,1.985133452E1
9.486448917E0,-6.297172904E-1,3.449130952E-1,1.992783356E1,1.994076376E1
9.496488917E0,-9.931402206E-1,3.577618599E-1,2.002063560E1,2.004844560E1
9.506529917E0,-1.204352617E0,4.205788970E-1,2.010215759E1,2.014259397E1
9.516569917E0,-1.249238610E0,8.091611862E-1,2.022889137E1,2.028357427E1
9.526609917E0,-1.179032087E0,5.536087751E-1,2.035481071E1,2.039644377E1
9.536650917E0,-6.750798225E-1,8.858795166E-1,2.029466438E1,2.032520400E1
9.546690917E0,-4.067170918E-1,1.205194354E0,2.028727913E1,2.032711506E1
9.556700917E0,1.554678380E-2,7.330870032E-1,1.999646378E1,2.000990309E1
9.566740917E0,-4.213684797E-1,1.183017969E0,1.996582985E1,2.000528541E1
9.576780917E0,6.918397546E-1,-4.231414795E-1,1.967729568E1,1.969400052E1
9.586821917E0,6.344667077E-1,-2.712443173E-1,1.952233315E1,1.953452362E1
9.596861917E0,1.294246167E-1,-4.580804110E-1,1.940782928E1,1.941366596E1
9.606901917E0,-3.794817626E-1,-3.016588390E-1,1.936650467E1,1.937257101E1
9.616941917E0,-7.314816117E-1,-4.127648771E-1,1.921836090E1,1.923670543E1
9.626982917E0,-1.078301907E0,-2.635198832E-1,1.896816063E1,1.900061303E1
9.637022917E0,-1.407661915E0,-1.320356280E-1,1.873641205E1,1.878968020E1
9.647076917E0,-9.664941430E-1,-2.738883793E-1,1.864139366E1,1.866844084E1
9.657116917E0,-6.863173246E-1,-8.684524894E-2,1.872800636E1,1.874077896E1
9.667157917E0,-6.296545863E-1,-2.454292923E-1,1.879418564E1,1.880633176E1
9.677197917E0,-4.661516547E-1,-3.513384163E-1,1.887070465E1,1.887973067E1
9.687237917E0,-4.314306974E-1,-3.354900330E-2,1.896508026E1,1.897001653E1
9.697278917E0,-6.813325286E-1,2.631037533E-1,1.899900627E1,1.901303965E1
9.707318917E0,-5.508362651E-1,2.573348284E-1,1.893617821E1,1.894593589E1
9.717358917E0,-4.746342599E-1,2.162946016E-1,1.895748711E1,1.896466131E1
9.727368917E0,-3.321282268E-1,3.075323701E-1,1.903958893E1,1.904496868E1
9.737408917E0,-3.553592563E-1,5.767078996E-1,1.915545082E1,1.916742467E1
9.747449917E0,-3.903737068E-1,3.292267621E-1,1.920006752E1,1.920685749E1
9.757489917E0,-5.879092813E-1,4.571781754E-1,1.933064461E1,1.934498566E1
9.767529917E0,-4.206681550E-1,4.005777240E-1,1.950742531E1,1.951607200E1
9.777569917E0,-3.576746285E-1,1.077455521E0,1.954444504E1,1.957738934E1
9.787610917E0,-6.992604136E-1,8.782518506E-1,1.967210579E1,1.970411220E1
9.797650917E0,-3.497841060E-1,6.505783200E-1,1.992044067E1,1.993413047E1
9.807690917E0,-7.634805143E-2,8.646272421E-1,1.988648987E1,1.990542360E1
9.817731917E0,-3.419172168E-1,3.505323529E-1,1.989149284E1,1.989751914E1
9.827771917E0,-2.911837399E-1,6.007309258E-2,1.987047958E1,1.987270378E1
9.837811917E0,2.526483536E-1,-1.490420401E-1,1.999887085E1,2.000102197E1
9.847851917E0,5.205333233E-1,-1.904118508E-1,2.010156059E1,2.010920063E1