"Time (s)","Gyroscope x (rad/s)","Gyroscope y (rad/s)","Gyroscope z (rad/s)","Absolute (rad/s)"
0.000000000E0,4.023174345E-1,2.331711054E0,4.094337463E0,4.728883063E0
1.004100000E-2,4.425041080E-1,2.380883455E0,4.066778660E0,4.733191796E0
2.008100001E-2,6.158519387E-1,2.185533762E0,4.182382107E0,4.759007409E0
3.012100000E-2,5.514461994E-1,2.235106707E0,4.137493610E0,4.734833500E0
4.013100000E-2,6.583814621E-1,2.062813997E0,4.134796143E0,4.667462574E0
5.017100000E-2,7.095112801E-1,2.115320921E0,4.107123852E0,4.674019169E0
6.021100000E-2,7.956762314E-1,2.076422215E0,4.075125694E0,4.642335544E0
7.025200000E-2,9.953315854E-1,1.857024312E0,3.980486870E0,4.503720682E0
8.029200000E-2,9.083684683E-1,1.985429168E0,3.956825256E0,4.519239799E0
9.033200001E-2,1.077363133E0,1.664379358E0,3.932525396E0,4.404046544E0
1.003730000E-1,1.120215893E0,2.048133373E0,3.904529333E0,4.549184902E0
1.104130000E-1,1.349877000E0,1.877735853E0,3.929923773E0,4.559864111E0
1.204530000E-1,1.254820466E0,1.904606104E0,3.887664557E0,4.507331197E0
1.304930000E-1,1.302423358E0,1.618726492E0,3.843966246E0,4.369514682E0
1.405340000E-1,1.250110149E0,1.785798311E0,3.815733433E0,4.394504821E0
1.505740000E-1,1.462760448E0,1.646163940E0,3.769187689E0,4.365352183E0
1.606140000E-1,1.389174342E0,1.756967425E0,3.719962835E0,4.342218717E0
1.706550000E-1,1.484904051E0,1.427021980E0,3.616513252E0,4.161790465E0
1.806950000E-1,1.426662326E0,1.568044305E0,3.581884623E0,4.162214048E0
1.907350000E-1,1.574497461E0,1.512034535E0,3.507836580E0,4.131610844E0
2.007750000E-1,1.539196730E0,1.615435004E0,3.454400539E0,4.112376431E0
2.108160000E-1,1.565558553E0,1.449900389E0,3.446248055E0,4.053370249E0
2.208560000E-1,1.621930957E0,1.376213074E0,3.398063898E0,4.008922637E0
2.308960000E-1,1.663375139E0,1.255475163E0,3.372652531E0,3.964570574E0
2.409370000E-1,1.655259132E0,1.167961597E0,3.332673550E0,3.900093598E0
2.509460000E-1,1.685850263E0,9.837532640E-1,3.302146435E0,3.835887468E0
2.609876250E-1,1.694864988E0,8.914794922E-1,3.257955551E0,3.779097430E0
2.710276250E-1,1.765872002E0,8.269945979E-1,3.223319530E0,3.767228794E0
2.810676250E-1,1.862590075E0,8.074994683E-1,3.183545351E0,3.775746043E0
2.911076250E-1,1.880420089E0,6.983569860E-1,3.125036716E0,3.713426540E0
3.011486250E-1,1.837698221E0,5.964884162E-1,3.071440220E0,3.628591766E0
3.111886250E-1,1.689575195E0,5.225598812E-1,3.084378004E0,3.555435394E0
3.212286250E-1,1.562377334E0,3.310953975E-1,3.100448847E0,3.487610951E0
3.312696250E-1,1.333552361E0,1.380766183E-1,3.138972044E0,3.413293504E0
3.413096250E-1,1.434435010E0,-1.578652859E-1,3.203536034E0,3.513569177E0
3.513496250E-1,1.544681072E0,-2.973586023E-1,3.266802073E0,3.625804398E0
3.613896250E-1,1.902043462E0,-1.837899685E-1,3.310053825E0,3.822041916E0
3.714306250E-1,1.988659143E0,-1.679674238E-1,3.321348429E0,3.874833368E0
3.814706250E-1,2.109932184E0,-2.337038219E-1,3.358574867E0,3.973217391E0
3.915106250E-1,2.191712379E0,-1.602420211E-1,3.405066252E0,4.052623451E0
4.015516250E-1,2.233843565E0,-2.479670793E-1,3.460234404E0,4.126107957E0
4.115916250E-1,2.188531160E0,-3.751419783E-1,3.507768154E0,4.151486188E0
4.216316250E-1,2.177901506E0,-5.462508798E-1,3.552114010E0,4.202280207E0
4.316716250E-1,2.178526402E0,-5.041170716E-1,3.550841570E0,4.196258710E0
4.417126250E-1,2.205149889E0,-5.248313546E-1,3.561065912E0,4.221294164E0
4.517216250E-1,2.318634033E0,-6.190712452E-1,3.580352783E0,4.310248141E0
4.617626250E-1,2.285987139E0,-6.642975807E-1,3.715684175E0,4.412860452E0
4.718026250E-1,2.313918352E0,-7.614424825E-1,3.772713661E0,4.490810747E0
4.818426250E-1,2.264364243E0,-8.064488173E-1,3.805021763E0,4.500655034E0
4.918836250E-1,2.219068527E0,-9.278190732E-1,3.851061106E0,4.540460880E0
5.019236250E-1,2.142154694E0,-1.023890257E0,3.885812998E0,4.553758958E0
5.119636250E-1,2.047557831E0,-1.112208009E0,3.839587212E0,4.491317143E0
5.220036250E-1,2.061514378E0,-1.131991863E0,3.732925653E0,4.412026863E0
5.320446250E-1,2.059098721E0,-1.218907714E0,3.769443750E0,4.464787760E0
5.420846250E-1,2.063512087E0,-1.212565064E0,3.783399820E0,4.476886236E0
5.521246250E-1,2.122991800E0,-1.398039460E0,3.739141941E0,4.521370475E0
5.621656250E-1,2.168247223E0,-1.449048519E0,3.689351320E0,4.518002965E0
5.722056250E-1,2.181012869E0,-1.507764816E0,3.527227163E0,4.412652642E0
5.822456250E-1,2.149650097E0,-1.518658996E0,3.562119007E0,4.428996783E0
5.922856250E-1,1.973043442E0,-1.583062768E0,3.630120754E0,4.424563802E0
6.023266250E-1,1.659273028E0,-1.280893803E0,3.803078890E0,4.342497549E0
6.123666250E-1,1.541701436E0,-1.642894626E0,3.898764849E0,4.502922764E0
6.224066250E-1,1.538955212E0,-1.753854513E0,3.791480780E0,4.451933883E0
6.324476250E-1,1.482252955E0,-1.942575336E0,3.956580639E0,4.650290648E0
6.424876250E-1,1.403355837E0,-2.079908371E0,3.972897053E0,4.698865547E0
6.525276250E-1,1.297389984E0,-2.204738140E0,3.926352739E0,4.686185749E0
6.625376250E-1,1.231423974E0,-2.258924246E0,3.919014215E0,4.688050360E0
6.725776250E-1,1.181112885E0,-2.273133755E0,3.676188231E0,4.480683499E0
6.826176250E-1,1.182392001E0,-2.281934977E0,3.671979666E0,4.482043367E0
6.926586250E-1,1.115559459E0,-2.238495827E0,3.696547031E0,4.463159915E0
7.026986250E-1,1.013108730E0,-2.161036015E0,3.724387407E0,4.423519811E0
7.127386250E-1,9.221134782E-1,-2.152313232E0,3.763104677E0,4.432121651E0
7.227796250E-1,8.496603370E-1,-2.231482983E0,3.778249741E0,4.469520119E0
7.328196250E-1,7.644152045E-1,-2.267029285E0,3.806614876E0,4.496005916E0
7.428596250E-1,6.184601188E-1,-2.193518639E0,3.838639975E0,4.464210321E0
7.528996250E-1,4.560083151E-1,-2.132888556E0,3.896769524E0,4.465643279E0
7.629406250E-1,3.695456088E-1,-2.178802252E0,3.813899040E0,4.407898490E0
7.729806250E-1,3.999112844E-1,-2.414642096E0,3.739981174E0,4.469662702E0
7.830206250E-1,3.586471975E-1,-2.481666803E0,3.745174170E0,4.507064177E0
7.930616250E-1,2.980957031E-1,-2.415865660E0,3.769442081E0,4.487088314E0
8.031016250E-1,2.218797654E-1,-2.412034035E0,3.796870947E0,4.503706008E0
8.131416250E-1,9.831736982E-2,-2.386577845E0,3.820970058E0,4.506132743E0
8.231816250E-1,-1.902550459E-2,-2.351935625E0,3.852650881E0,4.513854446E0
8.332226250E-1,-8.408198506E-2,-2.377920866E0,3.834612131E0,4.512851385E0
8.432626250E-1,-1.570589989E-1,-2.271000624E0,3.887623549E0,4.505078048E0
8.533026250E-1,-2.795096040E-1,-2.183768034E0,4.023274899E0,4.586252212E0
8.633436250E-1,-4.225168228E-1,-2.098838329E0,4.056072235E0,4.586432685E0
8.733526250E-1,-4.997455180E-1,-2.137135267E0,3.989905357E0,4.553727868E0
8.833936250E-1,-5.990816951E-1,-2.247928381E0,3.900773287E0,4.541818261E0
8.934336250E-1,-6.848855615E-1,-2.243584156E0,3.868509531E0,4.524168884E0
9.034736250E-1,-7.740593553E-1,-2.304305077E0,3.871976137E0,4.571781817E0
9.135136250E-1,-8.482971191E-1,-2.308614016E0,3.898822308E0,4.609785468E0
9.235546250E-1,-9.525886774E-1,-2.300140858E0,3.914392710E0,4.639023975E0
9.335946250E-1,-1.035390854E0,-2.299064159E0,3.922910929E0,4.663363634E0
9.436346250E-1,-1.134917498E0,-2.148269415E0,4.088576317E0,4.756002050E0
9.536756250E-1,-1.298000693E0,-2.069707870E0,4.294959068E0,4.941170900E0
9.637156250E-1,-1.457028508E0,-2.045750141E0,4.277392864E0,4.960253565E0
9.737556250E-1,-1.521952629E0,-2.030128956E0,4.172273636E0,4.883198816E0
9.837956250E-1,-1.641724586E0,-2.070751190E0,3.918841600E0,4.726583290E0
9.938366250E-1,-1.720243573E0,-2.180297613E0,3.964563608E0,4.840526855E0
1.003876625E0,-1.835240126E0,-2.144632339E0,3.988448858E0,4.886233568E0
1.013916625E0,-1.887830019E0,-1.925212145E0,4.006037712E0,4.828942134E0
1.023957625E0,-1.868560195E0,-1.698684454E0,4.090648651E0,4.807333197E0
1.033997625E0,-1.887357473E0,-1.564250112E0,4.134799957E0,4.806825078E0
1.044037625E0,-1.842260361E0,-1.372445583E0,4.271746635E0,4.850293747E0
1.054077625E0,-1.810810089E0,-1.227189779E0,4.526828289E0,5.027643811E0
1.064118625E0,-1.910834789E0,-1.107467413E0,4.497941494E0,5.010913225E0
1.074158625E0,-2.057426453E0,-1.116051435E0,4.242577076E0,4.845413776E0
1.084168625E0,-2.198914766E0,-1.093151212E0,4.264804363E0,4.921256138E0
1.094208625E0,-2.345146656E0,-1.131364226E0,4.217776775E0,4.956746794E0
1.104248625E0,-2.543646574E0,-1.129635572E0,4.094081879E0,4.950527330E0
1.114289625E0,-2.732415915E0,-1.046862125E0,3.923377514E0,4.894375155E0
1.124329625E0,-2.879307032E0,-9.486559033E-1,3.796802759E0,4.858607640E0
1.134369625E0,-2.712319613E0,-6.717413664E-1,3.795257807E0,4.712949816E0
1.144409625E0,-2.586237192E0,-5.053380728E-1,3.856357336E0,4.670704581E0
1.154450625E0,-2.617620707E0,-3.355555236E-1,3.890350580E0,4.700995991E0
1.164490625E0,-2.661902666E0,-2.465441823E-1,3.898820639E0,4.727294386E0
1.174530625E0,-2.691350222E0,-1.355858147E-1,3.907704353E0,4.746778154E0
1.184571625E0,-2.794854403E0,-1.288786251E-2,3.906220675E0,4.803117445E0
1.194611625E0,-2.925034761E0,-3.833623976E-2,3.897810221E0,4.873420004E0
1.204651625E0,-3.035135508E0,3.503810614E-2,3.911550999E0,4.951111636E0
1.214691625E0,-3.162672997E0,1.091477424E-1,3.900043011E0,5.022424633E0
1.224732625E0,-3.279196501E0,3.279971331E-2,3.899998426E0,5.095507162E0
1.234772625E0,-3.348088741E0,1.417300552E-1,3.907681942E0,5.147792127E0
1.244812625E0,-3.393012285E0,1.173799783E-1,3.948684931E0,5.207535224E0
1.254853625E0,-3.370800495E0,1.898868829E-1,3.991704702E0,5.228007215E0
1.264912000E0,-3.219712973E0,3.903411329E-1,4.107534885E0,5.233618314E0
1.274952000E0,-3.122863293E0,4.643389285E-1,4.301469803E0,5.335778130E0
1.284962000E0,-3.040907383E0,6.266255975E-1,4.614365578E0,5.561667649E0
1.295002000E0,-3.127903461E0,9.671131968E-1,4.745255470E0,5.765113830E0
1.305042000E0,-3.162661552E0,1.109885097E0,4.667552948E0,5.746331312E0
1.315083000E0,-3.197028875E0,1.325885892E0,4.691159248E0,5.829746317E0
1.325123000E0,-2.926794052E0,1.587551355E0,4.870336533E0,5.899713609E0
1.335163000E0,-2.882561445E0,1.592087865E0,5.218735695E0,6.170827052E0
1.345204000E0,-2.751209259E0,2.069113970E0,5.234457493E0,6.264976477E0
1.355244000E0,-2.762195826E0,2.440839529E0,5.110816479E0,6.301417973E0
1.365284000E0,-2.636644125E0,2.258852720E0,4.722897530E0,5.861746235E0
1.375324000E0,-2.520963907E0,1.741185069E0,4.707835674E0,5.617001086E0
1.385365000E0,-2.290594101E0,2.056405783E0,4.763279915E0,5.671372111E0
1.395405000E0,-2.251376629E0,2.277383804E0,4.805003643E0,5.774360027E0
1.405445000E0,-2.405213118E0,2.809236050E0,4.849699974E0,6.098889010E0
1.415486000E0,-1.998169541E0,2.636599064E0,5.224206448E0,6.183580609E0
1.425526000E0,-1.888942599E0,2.856430769E0,5.372935295E0,6.371478209E0
1.435566000E0,-1.749137521E0,2.823081970E0,5.190829754E0,6.162303742E0
1.445606000E0,-1.566224217E0,2.759816885E0,4.836856842E0,5.784879571E0
1.455647000E0,-1.276340365E0,2.848974466E0,5.061484814E0,5.946791467E0
1.465687000E0,-1.039365053E0,2.743721485E0,5.340088844E0,6.093015359E0
1.475727000E0,-1.082016826E0,2.861251593E0,5.208000660E0,6.039933109E0
1.485768000E0,-8.536393642E-1,2.763489008E0,5.063464165E0,5.831315547E0
1.495777000E0,-8.131204844E-1,3.019926310E0,5.176925182E0,6.048278613E0
1.505818000E0,-5.496326685E-1,2.889075994E0,5.073846817E0,5.864535591E0
1.515858000E0,-5.205687284E-1,3.089156389E0,5.020813465E0,5.917976584E0
1.525898000E0,3.419686109E-3,2.678691387E0,5.264143467E0,5.906488439E0
1.535938000E0,5.470383912E-2,3.142726183E0,5.203690529E0,6.079318670E0
1.545979000E0,1.826532930E-1,3.130105019E0,5.218127728E0,6.087674156E0
1.556019000E0,2.378647625E-1,3.111604452E0,5.141303062E0,6.014287912E0
1.566059000E0,3.446988165E-1,2.751204967E0,5.129544735E0,5.830966921E0
1.576100000E0,3.992345929E-1,2.853781223E0,5.089251518E0,5.848413165E0
1.586140000E0,5.401496887E-1,2.720774412E0,5.020105839E0,5.735489318E0
1.596180000E0,6.409841180E-1,2.961724997E0,5.028936386E0,5.871360726E0
1.606220000E0,1.021152616E0,2.726460218E0,5.195506573E0,5.955638214E0
1.616261000E0,1.129093885E0,2.807508945E0,5.155754089E0,5.978190337E0
1.626301000E0,1.349886179E0,2.699144363E0,5.138893127E0,5.959513031E0
1.636341000E0,1.427425146E0,2.416832447E0,4.913091183E0,5.658364304E0
1.646382000E0,1.291355133E0,2.453859806E0,5.013545990E0,5.729281754E0
1.656422000E0,1.496756077E0,2.012017012E0,4.964952946E0,5.562306083E0
1.666462000E0,1.473403573E0,2.284460306E0,4.873867512E0,5.580704391E0
1.676502000E0,1.877832890E0,2.191362381E0,4.632138252E0,5.457566329E0
1.686543000E0,2.035977125E0,2.414350033E0,4.570400715E0,5.555434423E0
1.696583000E0,2.252951145E0,2.046441793E0,4.525914669E0,5.454137555E0
1.706593000E0,2.368830919E0,2.248658419E0,4.279570580E0,5.383544274E0
1.716633000E0,2.465382338E0,2.100490570E0,4.457784176E0,5.510173361E0
1.726673000E0,2.555734396E0,1.946752310E0,4.719288826E0,5.709055078E0
1.736714000E0,2.618188381E0,1.796226859E0,4.699966908E0,5.671951186E0
1.746754000E0,2.536362648E0,1.454091072E0,4.576008797E0,5.430227696E0
1.756794000E0,2.387079000E0,1.475840569E0,4.355422497E0,5.181308393E0
1.766834000E0,2.518268108E0,1.311618686E0,4.296903610E0,5.150281398E0
1.776875000E0,2.795990229E0,1.546856880E0,4.240839958E0,5.309901234E0
1.786915000E0,3.036866903E0,1.479774356E0,4.214096069E0,5.401009018E0
1.796955000E0,3.149406433E0,1.586704135E0,4.174294472E0,5.464533395E0
1.806996000E0,3.034206867E0,1.100439668E0,4.436020851E0,5.485951127E0
1.817036000E0,2.935388088E0,1.205001593E0,4.609538555E0,5.596103802E0
1.827076000E0,3.079231262E0,8.706036806E-1,4.594523907E0,5.599041513E0
1.837116000E0,3.208627462E0,8.249624968E-1,4.508568287E0,5.594912091E0
1.847157000E0,3.346735477E0,7.203058600E-1,4.290108204E0,5.488579715E0
1.857197000E0,3.314738750E0,4.705733359E-1,4.197368145E0,5.369062450E0
1.867237000E0,3.137978792E0,3.370278180E-1,4.241248608E0,5.286651909E0
1.877278000E0,3.273921251E0,1.537263393E-1,4.243629456E0,5.361957022E0
1.887318000E0,3.208012819E0,1.838422008E-2,4.157324314E0,5.251193167E0
1.897358000E0,2.888516903E0,-2.458856627E-2,4.327261448E0,5.202819056E0
1.907368000E0,2.721451759E0,2.692196369E-1,4.702084541E0,5.439520009E0
1.917408000E0,2.900613546E0,-3.210274577E-1,4.598982334E0,5.446765653E0
1.927448000E0,2.987318993E0,-4.237948358E-1,4.549263477E0,5.458889540E0
1.937489000E0,2.951608658E0,-5.025863647E-1,4.477326870E0,5.386189991E0
1.947529000E0,2.763982058E0,-5.005722046E-1,4.735509872E0,5.505926180E0
1.957569000E0,2.804628849E0,-9.944083691E-1,4.671186447E0,5.538481183E0
1.967610000E0,2.667310715E0,-1.041682482E0,4.710822105E0,5.512848062E0
1.977650000E0,2.566815138E0,-1.318550467E0,4.486702442E0,5.334567845E0
1.987690000E0,2.455252409E0,-1.076203585E0,4.544396877E0,5.276174895E0
1.997730000E0,2.497602463E0,-1.511966825E0,4.471940041E0,5.340628190E0
2.007771000E0,2.291631699E0,-1.362693429E0,4.437314987E0,5.176704890E0
2.017811000E0,2.277167559E0,-1.384109259E0,4.432262421E0,5.171672911E0
2.027851000E0,2.271823645E0,-1.507583022E0,4.360908985E0,5.143103773E0
2.037892000E0,2.088748693E0,-1.451933980E0,4.320166111E0,5.013463734E0
2.047932000E0,1.772969246E0,-1.262289762E0,4.535201073E0,5.030392048E0
2.057972000E0,1.861379981E0,-1.729720592E0,4.617824554E0,5.270765825E0
2.068012000E0,1.702111483E0,-2.023147821E0,4.293703556E0,5.042439968E0
2.078053000E0,1.587047696E0,-2.009162188E0,4.355453491E0,5.052269609E0
2.088093000E0,1.551213026E0,-2.144690990E0,4.265937805E0,5.020377143E0
2.098133000E0,1.448954701E0,-2.164461374E0,4.268225670E0,5.000211309E0
2.108174000E0,1.369359136E0,-2.188962698E0,4.266651630E0,4.987085148E0
2.118183000E0,1.281435847E0,-2.189685822E0,4.235178471E0,4.936956401E0
2.128224000E0,1.129682541E0,-2.133174896E0,4.163008213E0,4.812198579E0
2.138264000E0,1.082482815E0,-2.182080269E0,4.132245541E0,4.796738116E0
2.148304000E0,8.670077920E-1,-2.070478201E0,4.087028027E0,4.662872568E0
2.158344000E0,6.749147177E-1,-1.987280965E0,4.179949284E0,4.677261113E0
2.168385000E0,5.889231563E-1,-2.049157619E0,4.276600361E0,4.778617800E0
2.178425000E0,4.835992754E-1,-1.976776004E0,4.278703690E0,4.738018245E0
2.188465000E0,3.782939017E-1,-1.904956937E0,4.245691299E0,4.668818032E0
2.198506000E0,2.899511755E-1,-1.886597633E0,4.170008183E0,4.586097530E0
2.208546000E0,3.019247651E-1,-1.920937300E0,4.154307842E0,4.586876096E0
2.218586000E0,3.035189807E-1,-2.028012276E0,4.061816692E0,4.550089274E0
2.228626000E0,2.470077723E-1,-2.072987318E0,3.966766119E0,4.482579916E0
2.238667000E0,1.922622770E-1,-2.118330240E0,3.966480017E0,4.500805652E0
2.248707000E0,-1.691303775E-2,-2.082670450E0,4.009397984E0,4.518083050E0
2.258747000E0,-1.971131414E-1,-2.084909678E0,4.053849220E0,4.562827572E0
2.268785250E0,-3.913435936E-1,-2.069831371E0,4.161015511E0,4.663839812E0
2.278825250E0,-5.653049946E-1,-2.192979813E0,4.094046116E0,4.678669020E0
2.288865250E0,-7.336639166E-1,-2.346578360E0,3.928537846E0,4.634447361E0
2.298905250E0,-8.489346504E-1,-2.509541512E0,3.590842962E0,4.462358325E0
2.308946250E0,-9.119378328E-1,-2.609034538E0,3.578853607E0,4.521823191E0
2.318986250E0,-9.254909754E-1,-2.586196661E0,3.554347992E0,4.492030316E0
2.328996250E0,-8.616209030E-1,-2.569713593E0,3.557687044E0,4.472466393E0
2.339036250E0,-7.464748025E-1,-2.548236370E0,3.584632874E0,4.460978151E0
2.349076250E0,-6.109971404E-1,-2.424434185E0,3.627662659E0,4.405806962E0
2.359117250E0,-4.345433414E-1,-1.999953747E0,3.706000566E0,4.233566239E0
2.369157250E0,-3.891164958E-1,-1.888784289E0,3.709532499E0,4.180855068E0
2.379197250E0,-6.668141484E-1,-1.816783667E0,3.894340515E0,4.348704640E0
2.389237250E0,-8.296635151E-1,-1.884080529E0,3.969802141E0,4.471848614E0
2.399278250E0,-9.554826617E-1,-1.776075363E0,3.945654392E0,4.431205185E0
2.409318250E0,-1.000086904E0,-1.721747160E0,3.889575005E0,4.369597329E0
2.419358250E0,-1.023054481E0,-1.736285210E0,3.873425245E0,4.366319953E0
2.429399250E0,-1.145342231E0,-1.540545464E0,3.984192848E0,4.422542459E0
2.439439250E0,-1.234950662E0,-1.565873504E0,4.088268280E0,4.548736143E0
2.449479250E0,-1.311163902E0,-1.428178191E0,4.085947514E0,4.522588950E0
2.459519250E0,-1.405192494E0,-1.277677655E0,4.069172382E0,4.490566781E0
2.469560250E0,-1.516995788E0,-1.177991033E0,4.065788746E0,4.496618420E0
2.479600250E0,-1.668959022E0,-9.919861555E-1,3.934973478E0,4.387878419E0
2.489640250E0,-1.587921381E0,-9.991160035E-1,3.995225906E0,4.413791697E0
2.499681250E0,-1.535968900E0,-9.630905986E-1,3.993283272E0,4.385550735E0
2.509721250E0,-1.490350485E0,-9.316157699E-1,3.994002819E0,4.363612154E0
2.519761250E0,-1.524564862E0,-9.590392113E-1,3.929135084E0,4.322286055E0
2.529771250E0,-1.564863205E0,-9.136251211E-1,3.915037394E0,4.314049780E0
2.539811250E0,-1.773969889E0,-8.130946159E-1,4.061511517E0,4.505992434E0
2.549851250E0,-1.699491978E0,-7.510765195E-1,4.057137012E0,4.462370408E0
2.559892250E0,-1.667216182E0,-6.584111452E-1,4.034690380E0,4.414956568E0
2.569932250E0,-1.666168928E0,-5.068144798E-1,4.006134510E0,4.368305567E0
2.579972250E0,-1.590735674E0,-3.902857602E-1,3.914874315E0,4.243701670E0
2.590013250E0,-1.669844866E0,-2.765147388E-1,3.919163704E0,4.269038114E0
2.600053250E0,-1.765974164E0,-1.657555550E-1,3.925688744E0,4.307803589E0
2.610093250E0,-1.909467936E0,-2.333500534E-1,3.886929035E0,4.336904123E0
2.620133250E0,-2.135753393E0,-2.804953158E-1,3.807374239E0,4.374496402E0
2.630174250E0,-2.253036261E0,-3.033228815E-1,3.682091713E0,4.327352140E0
2.640214250E0,-1.991421819E0,1.124695092E-1,3.777580738E0,4.271829407E0
2.650254250E0,-2.105349779E0,-1.440967768E-1,3.906354427E0,4.439917396E0
2.660295250E0,-2.117391348E0,-1.387075633E-1,3.879140139E0,4.421573716E0
2.670335250E0,-2.224620342E0,3.567356616E-2,3.864242077E0,4.458988125E0
2.680375250E0,-2.267753601E0,1.465300471E-1,3.715378761E0,4.355251633E0
2.690415250E0,-2.180197001E0,1.109435633E-1,3.736086369E0,4.327113217E0
2.700456250E0,-2.225643635E0,2.225047052E-1,3.704978466E0,4.327801216E0
2.710496250E0,-2.288991213E0,3.371665776E-1,3.674733639E0,4.342445093E0
2.720536250E0,-2.319240332E0,2.467803508E-1,3.630218744E0,4.314888688E0
2.730577250E0,-2.165523767E0,6.190982461E-1,3.720057249E0,4.348747149E0
2.740586250E0,-2.206113338E0,6.037664413E-1,3.655574799E0,4.312156895E0
2.750627250E0,-2.055257559E0,5.886099935E-1,3.651738882E0,4.231517721E0
2.760667250E0,-1.912328482E0,7.432155013E-1,3.654396296E0,4.190940442E0
2.770707250E0,-1.737249613E0,9.273973107E-1,3.681287050E0,4.174922315E0
2.780747250E0,-1.713813186E0,9.873525500E-1,3.638172388E0,4.141052888E0
2.790788250E0,-1.528620839E0,1.155743718E0,3.664814234E0,4.135612238E0
2.800828250E0,-1.512729168E0,1.038035274E0,3.649114132E0,4.084348260E0
2.810868250E0,-1.665469050E0,1.168975592E0,3.726056814E0,4.245443496E0
2.820909250E0,-1.773946881E0,1.289087653E0,3.809944630E0,4.395942743E0
2.830949250E0,-1.859914541E0,1.483832359E0,3.791606665E0,4.476306700E0
2.840989250E0,-1.659265518E0,1.536581635E0,3.990595341E0,4.586839474E0
2.851029250E0,-1.681243539E0,1.622709155E0,4.020688057E0,4.650343782E0
2.861070250E0,-1.756830454E0,1.944319129E0,4.166261196E0,4.921845434E0
2.871110250E0,-1.780522346E0,2.184116840E0,4.177741051E0,5.039260510E0
2.881150250E0,-1.721200943E0,2.301252842E0,4.227900982E0,5.112088031E0
2.891191250E0,-1.593107939E0,2.404722452E0,3.979386806E0,4.914895964E0
2.901231250E0,-1.478660941E0,2.452719927E0,4.276671886E0,5.147056988E0
2.911271250E0,-1.521507621E0,2.713417768E0,4.239189625E0,5.258169843E0
2.921311250E0,-1.540674925E0,2.763172388E0,4.041059017E0,5.132149535E0
2.931352250E0,-1.519557953E0,2.740348101E0,3.746058464E0,4.883801603E0
2.941392250E0,-1.553704500E0,2.758786201E0,3.949594259E0,5.062034551E0
2.951402250E0,-1.536789417E0,2.782264471E0,3.985335588E0,5.097608954E0
2.961442250E0,-1.392833114E0,2.855134964E0,4.032392979E0,5.133417271E0
2.971482250E0,-1.169455647E0,2.927153111E0,4.075740337E0,5.152427694E0
2.981523250E0,-9.136599302E-1,2.894284725E0,4.165401459E0,5.153855630E0
2.991563250E0,-6.874811053E-1,2.922378302E0,4.633255959E0,5.520868228E0
3.001603250E0,-4.885852039E-1,3.038064003E0,4.608413219E0,5.541301362E0
3.011643250E0,-4.076184630E-1,3.208814621E0,4.556644917E0,5.587992214E0
3.021684250E0,-4.830281734E-1,3.250194311E0,4.166039467E0,5.305936686E0
3.031724250E0,-3.750647008E-1,2.915654898E0,4.150350571E0,5.085973542E0
3.041764250E0,-3.826007843E-1,3.035001278E0,4.212682247E0,5.206179773E0
3.051805250E0,2.138849720E-2,2.710260153E0,4.425414085E0,5.189437098E0
3.061845250E0,1.166223809E-1,3.146535158E0,4.468737602E0,5.466616873E0
3.071885250E0,3.323820829E-1,3.037803173E0,4.411479473E0,5.366551696E0
3.081925250E0,4.288320243E-1,3.090710878E0,4.608024120E0,5.565094512E0
3.091966250E0,5.568504333E-1,2.946393490E0,4.606011391E0,5.496058400E0
3.102006250E0,6.546142101E-1,2.827588320E0,4.513330936E0,5.365997728E0
3.112046250E0,7.086631060E-1,2.742127657E0,4.329637527E0,5.173705500E0
3.122087250E0,8.066652417E-1,2.511427402E0,4.205169201E0,4.964012935E0
3.132127250E0,8.186321259E-1,2.670259237E0,4.175035477E0,5.023083135E0
3.142167250E0,1.001838684E0,2.549506426E0,4.169682503E0,4.988979449E0
3.152177250E0,1.048385143E0,2.605194569E0,4.177750587E0,5.033860360E0
3.162217250E0,1.272848129E0,2.289236546E0,4.466932774E0,5.178246298E0
3.172258250E0,1.348547697E0,2.468013048E0,4.517087460E0,5.321066473E0
3.182298250E0,1.547141910E0,2.159622431E0,4.466445446E0,5.196802099E0
3.192338250E0,1.472060204E0,2.249857903E0,4.405641556E0,5.161249785E0
3.202378250E0,1.527049184E0,1.997264981E0,4.111598492E0,4.819355639E0
3.212419250E0,1.600222111E0,2.162569284E0,4.101786137E0,4.905310003E0
3.222459250E0,1.594218612E0,2.182073116E0,4.061976433E0,4.878793766E0
3.232499250E0,1.736564755E0,2.060492277E0,4.060598373E0,4.873370982E0
3.242539250E0,1.799839854E0,2.016619444E0,4.064269066E0,4.881030682E0
3.252580250E0,1.930752397E0,1.757891417E0,4.322322369E0,5.049797789E0
3.262620250E0,2.156140089E0,1.822200894E0,4.373731136E0,5.205658482E0
3.272660250E0,2.428375721E0,1.592444181E0,4.380934715E0,5.255994301E0
3.282701250E0,2.576198101E0,1.544682860E0,4.265302181E0,5.216861556E0
3.292741250E0,2.653169394E0,1.429983497E0,4.113068581E0,5.099165989E0
3.302781250E0,2.657505274E0,1.361028671E0,3.894119263E0,4.907025388E0
3.312821250E0,2.597010851E0,1.336959600E0,3.943533897E0,4.907482647E0
3.322862250E0,2.576584101E0,1.293143630E0,3.966055632E0,4.903121796E0
3.332902250E0,2.736600161E0,1.200140715E0,3.942154884E0,4.946706309E0
3.342942250E0,2.805033922E0,1.083358645E0,3.942100763E0,4.958027802E0
3.352983250E0,2.763878822E0,9.525842667E-1,3.969205379E0,4.929607923E0
3.362992250E0,2.869315863E0,7.529774904E-1,3.965490580E0,4.952278683E0
3.373033250E0,3.007122278E0,6.323096752E-1,3.946803570E0,5.001985440E0
3.383073250E0,3.050194025E0,4.498853981E-1,3.970863819E0,5.027309413E0
3.393113250E0,2.845989943E0,3.499561548E-1,4.041515350E0,4.955398510E0
3.403154250E0,2.662933350E0,2.284106761E-1,4.123667717E0,4.914063583E0
3.413194250E0,2.579489231E0,1.173166484E-1,4.173209190E0,4.907463992E0
3.423234250E0,2.557630777E0,2.387731522E-2,4.200844288E0,4.918245424E0
3.433274250E0,2.622444630E0,-9.814286977E-2,4.205780029E0,4.957361548E0
3.443315250E0,2.720031023E0,-2.089022547E-1,4.205251217E0,5.012618748E0
3.453355250E0,2.825972795E0,-3.031118214E-1,4.190887928E0,5.063747687E0
3.463395250E0,2.950684071E0,-4.469082355E-1,4.168374538E0,5.126559250E0
3.473435250E0,3.017362118E0,-4.768626690E-1,4.179882526E0,5.177189401E0
3.483476250E0,3.093305111E0,-6.192000508E-1,4.141858578E0,5.206432338E0
3.493516250E0,3.057311773E0,-6.091684699E-1,4.168872833E0,5.205549174E0
3.503556250E0,2.969556570E0,-6.616637111E-1,4.192008972E0,5.179672221E0
3.513597250E0,2.812429905E0,-7.463823557E-1,4.220301151E0,5.126186731E0
3.523637250E0,2.649070263E0,-8.428424001E-1,4.212718010E0,5.047271501E0
3.533677250E0,2.499642849E0,-8.876793981E-1,4.231706619E0,4.994349807E0
3.543717250E0,2.328498840E0,-1.162294388E0,4.225284576E0,4.962445450E0
3.553758250E0,2.197854757E0,-1.252913237E0,4.186850548E0,4.891837551E0
3.563768250E0,2.171764851E0,-1.490954518E0,4.151514053E0,4.916764879E0
3.573808250E0,2.109704256E0,-1.449317336E0,4.079969883E0,4.816381114E0
3.583848250E0,2.153426647E0,-1.537348986E0,3.958880186E0,4.761661533E0
3.593888250E0,2.177508116E0,-1.533810973E0,3.859090805E0,4.688997711E0
3.603929250E0,2.162174463E0,-1.589967489E0,3.900833368E0,4.734923019E0
3.613969250E0,1.940167069E0,-1.474074721E0,4.222784519E0,4.875351642E0
3.624009250E0,1.917192340E0,-1.779298425E0,4.147938251E0,4.903766011E0
3.634049250E0,1.913505912E0,-1.866050601E0,4.174830914E0,4.957102266E0
3.644090250E0,1.864941001E0,-1.898929119E0,4.147147179E0,4.927754708E0
3.654130250E0,1.772396684E0,-1.897680998E0,4.143846035E0,4.890198681E0
3.664170250E0,1.721000910E0,-1.920106053E0,4.147533894E0,4.883716698E0
3.674211250E0,1.652899265E0,-1.959694386E0,4.147842884E0,4.876174593E0
3.684251250E0,1.578137875E0,-2.025374651E0,4.153988361E0,4.883470173E0
3.694291250E0,1.497783422E0,-2.126735926E0,4.145644188E0,4.894152287E0
3.704331250E0,1.395218492E0,-2.233782530E0,4.123282433E0,4.892634980E0
3.714372250E0,1.268327594E0,-2.268359900E0,4.103550434E0,4.857287070E0
3.724412250E0,1.102033257E0,-2.252391815E0,4.120938778E0,4.823886670E0
3.734452250E0,9.258055091E-1,-2.256387472E0,4.283739090E0,4.929383415E0
3.744493250E0,7.443861961E-1,-2.284176826E0,4.387948990E0,5.002566433E0
3.754533250E0,5.528822541E-1,-2.321830511E0,4.339098454E0,4.952206690E0
3.764573250E0,4.256010950E-1,-2.321517467E0,4.277720928E0,4.885639772E0
3.774583250E0,4.100604951E-1,-2.336156368E0,4.197247505E0,4.821064489E0
3.784623250E0,3.845655620E-1,-2.305715084E0,4.073680401E0,4.696709990E0
3.794664250E0,3.654528558E-1,-2.362178326E0,4.098210335E0,4.744340858E0
3.804704250E0,1.561697870E-1,-2.308859825E0,4.263167858E0,4.850754877E0
3.814744250E0,-1.324000582E-2,-2.281342506E0,4.640432835E0,5.170910541E0
3.824784250E0,-2.104853541E-1,-2.208870173E0,4.330838203E0,4.866165951E0
3.834825250E0,-2.696056664E-1,-2.185309887E0,4.437679768E0,4.953914436E0
3.844865250E0,-3.694866002E-1,-2.145405054E0,4.409643173E0,4.917747056E0
3.854905250E0,-4.594055712E-1,-2.119007349E0,4.378080368E0,4.885574002E0
3.864945250E0,-5.177633762E-1,-2.113975763E0,4.339356899E0,4.854584508E0
3.874986250E0,-6.605187058E-1,-2.067130566E0,4.222382545E0,4.747402247E0
3.885026250E0,-7.793095708E-1,-2.025407076E0,4.452440739E0,4.953163208E0
3.895066250E0,-9.146088362E-1,-2.129938364E0,4.532543659E0,5.090883890E0
3.905107250E0,-1.082420468E0,-2.179500818E0,4.511375904E0,5.125853142E0
3.915147250E0,-1.276386738E0,-2.158247709E0,4.306367397E0,4.983171324E0
3.925187250E0,-1.241099596E0,-2.161335945E0,4.454695702E0,5.104509288E0
3.935227250E0,-1.301395416E0,-2.095014095E0,4.434983730E0,5.074622624E0
3.945268250E0,-1.293025970E0,-2.009452581E0,4.422309399E0,5.026592907E0
3.955308250E0,-1.266303778E0,-1.930266023E0,4.407699108E0,4.975667152E0
3.965348250E0,-1.321047664E0,-1.573452711E0,4.399520874E0,4.855584855E0
3.975389250E0,-1.372620225E0,-1.485074162E0,4.576686859E0,5.003558150E0
3.985398250E0,-1.638856888E0,-1.487880707E0,4.574704647E0,5.082082595E0
3.995439250E0,-1.838353515E0,-1.468379259E0,4.572637081E0,5.142440196E0
4.005479250E0,-1.982511759E0,-1.292338729E0,4.504630089E0,5.088436351E0
4.015519250E0,-1.986623645E0,-1.347322345E0,4.520728588E0,5.118489814E0
4.025560250E0,-2.141350746E0,-1.217845798E0,4.450759411E0,5.087021795E0
4.035600250E0,-2.189591408E0,-1.119783878E0,4.392439842E0,5.034059419E0
4.045640250E0,-2.272639036E0,-1.111453295E0,4.213274479E0,4.914458103E0
4.055680250E0,-2.444949865E0,-1.210553527E0,4.073727131E0,4.902904488E0
4.065721250E0,-2.544067144E0,-1.202988148E0,4.049026489E0,4.930930301E0
4.075761250E0,-2.538885117E0,-1.100780845E0,4.052313328E0,4.907025516E0
4.085801250E0,-2.631918669E0,-1.070408344E0,4.052454948E0,4.949258633E0
4.095841250E0,-2.743206024E0,-9.954978824E-1,4.057260513E0,4.997755316E0
4.105882250E0,-2.754051924E0,-6.605492830E-1,4.129079342E0,5.007037404E0
4.115922250E0,-2.793266296E0,-3.804098070E-1,4.323052406E0,5.160991216E0
4.125962250E0,-2.922005892E0,-6.112375259E-1,4.386175632E0,5.305682465E0
4.136003250E0,-2.936693907E0,-4.172648489E-1,4.300605774E0,5.224317284E0
4.146043250E0,-2.993304014E0,-4.518268406E-1,4.110214233E0,5.104691711E0
4.156083250E0,-3.020770788E0,-3.195561469E-1,4.140479565E0,5.135245205E0
4.166123250E0,-3.071578264E0,-2.953990102E-1,4.091178417E0,5.124411620E0
4.176164250E0,-3.154916763E0,-1.579187810E-2,4.053035736E0,5.136228952E0
4.186174250E0,-3.180805445E0,7.947576046E-2,4.102432251E0,5.191703964E0
4.196214250E0,-3.096447229E0,2.952458560E-1,4.159597397E0,5.193977865E0
4.206254250E0,-3.050076723E0,4.405181110E-1,4.504802704E0,5.458046503E0
4.216294250E0,-2.924556017E0,5.300728083E-1,4.525532246E0,5.414281779E0
4.226335250E0,-2.873575211E0,7.259024978E-1,4.486483574E0,5.377072046E0
4.236375250E0,-2.871617079E0,7.084417343E-1,4.374992847E0,5.280969301E0
4.246415250E0,-2.855560303E0,9.344835281E-1,4.162133694E0,5.133307023E0
4.256456250E0,-2.785121441E0,8.730044961E-1,4.261766911E0,5.165432750E0
4.266510250E0,-2.507981539E0,1.120899916E0,4.404035568E0,5.190560404E0
4.276550250E0,-2.691215277E0,1.564175367E0,4.270976543E0,5.284933763E0
4.286590250E0,-2.519919634E0,1.229470849E0,4.249411583E0,5.091079682E0
4.296631250E0,-2.390639544E0,1.142486095E0,4.528264523E0,5.246485632E0
4.306671250E0,-2.285236120E0,1.538058519E0,4.566997051E0,5.333421997E0
4.316711250E0,-2.290103912E0,1.914089203E0,4.524000168E0,5.419860785E0
4.326751250E0,-2.382458687E0,2.056770325E0,4.319502354E0,5.344578014E0
4.336792250E0,-2.206043959E0,1.557620049E0,4.075533390E0,4.889047205E0
4.346832250E0,-2.139247894E0,1.257173538E0,4.113386154E0,4.803833106E0
4.356872250E0,-1.927751899E0,1.623478293E0,4.229445934E0,4.923425846E0
4.366913250E0,-1.755880594E0,1.901527405E0,4.621646881E0,5.297031530E0
4.376953250E0,-1.778344870E0,2.457588911E0,4.548273563E0,5.467087537E0
4.386993250E0,-1.500399709E0,2.051003695E0,4.626435280E0,5.278420108E0
4.397003250E0,-1.518414974E0,2.584563732E0,4.637218475E0,5.521716120E0
4.407043250E0,-1.387980819E0,2.436804056E0,4.587814808E0,5.377039099E0
4.417084250E0,-1.488515377E0,2.724990845E0,4.237317562E0,5.253200287E0
4.427124250E0,-1.408711076E0,2.396172047E0,4.244332790E0,5.073506500E0
4.437164250E0,-1.335613728E0,2.541315556E0,4.387406826E0,5.243232537E0
4.447204250E0,-1.043004513E0,2.400369406E0,4.912771225E0,5.566412921E0
4.457245250E0,-8.761846423E-1,2.734677315E0,4.681489944E0,5.492040390E0
4.467285250E0,-7.231807113E-1,2.482190371E0,4.591089725E0,5.269000308E0
4.477325250E0,-7.536537051E-1,2.946841717E0,4.690400124E0,5.590324081E0
4.487365250E0,-5.296685696E-1,2.729593277E0,4.712357998E0,5.471521375E0
4.497406250E0,-5.248995423E-1,2.950681210E0,4.552097321E0,5.450103590E0
4.507446250E0,-3.688836098E-1,2.869943857E0,4.569179535E0,5.408331950E0
4.517486250E0,-1.400535405E-1,2.691621542E0,4.674272537E0,5.395670975E0
4.527527250E0,5.730614439E-2,2.792156935E0,4.890917778E0,5.632095618E0
4.537567250E0,1.596960574E-1,2.854169130E0,4.841184616E0,5.622175090E0
4.547607250E0,2.778961957E-1,2.737401009E0,4.584690571E0,5.346959716E0
4.557647250E0,2.881615758E-1,2.721931934E0,4.691434383E0,5.431528986E0
4.567688250E0,4.553937018E-1,2.397312403E0,4.783859730E0,5.370270393E0
4.577728250E0,4.591213465E-1,2.663903952E0,4.587512493E0,5.324701639E0
4.587768250E0,5.775836110E-1,2.692349911E0,4.626089096E0,5.383590920E0
4.597809250E0,9.002934694E-1,2.351158857E0,4.847955227E0,5.462705025E0
4.607818250E0,9.806903601E-1,2.746046543E0,4.818489075E0,5.632083288E0
4.617859250E0,1.306249022E0,2.447722673E0,4.816260338E0,5.558236810E0
4.627899250E0,1.471068740E0,2.541657686E0,4.520120621E0,5.390320719E0
4.637939250E0,1.442232609E0,2.526877165E0,4.646573544E0,5.482316007E0
4.647980250E0,1.562447786E0,2.387391329E0,4.618969917E0,5.429158640E0
4.658020250E0,1.595305562E0,2.438197136E0,4.582595348E0,5.430468234E0
4.668060250E0,1.766830206E0,2.335209846E0,4.476966858E0,5.349591223E0
4.678100250E0,1.825692892E0,2.250731707E0,4.267264843E0,5.158342466E0
4.688141250E0,1.811990499E0,2.104739666E0,4.213940620E0,5.046834075E0
4.698181250E0,1.907199621E0,1.856188893E0,4.241611958E0,5.007406475E0
4.708221250E0,2.027155638E0,1.885046244E0,4.137859344E0,4.978417346E0
4.718261250E0,2.122593164E0,1.685590744E0,4.224645615E0,5.019387260E0
4.728302250E0,2.087039232E0,1.505709648E0,4.488201141E0,5.173668310E0
4.738342250E0,2.070943117E0,1.352493525E0,4.425315380E0,5.069660772E0
4.748382250E0,1.992940664E0,1.251296759E0,4.219669342E0,4.831476526E0
4.758423250E0,2.033929110E0,1.561622381E0,4.013529301E0,4.762767004E0
4.768463250E0,2.313616514E0,1.390988350E0,3.936789513E0,4.773466417E0
4.778503250E0,2.394783735E0,1.596651793E0,3.861825228E0,4.816428155E0
4.788543250E0,2.708774805E0,1.505014181E0,3.777353764E0,4.885788584E0
4.798584250E0,2.831825256E0,1.470479608E0,3.735146046E0,4.912520793E0
4.808594250E0,2.615782261E0,9.884192944E-1,3.808206797E0,4.724587659E0
4.818634250E0,2.460259914E0,8.072592616E-1,3.955384731E0,4.727537915E0
4.828674250E0,2.375692129E0,6.428855062E-1,4.011185169E0,4.706040940E0
4.838714250E0,2.272494316E0,8.906742334E-1,3.994277239E0,4.681002208E0
4.848755250E0,2.495189667E0,6.771609187E-1,3.973424196E0,4.740529319E0
4.858795250E0,2.275561810E0,9.659708738E-1,3.884695292E0,4.604578025E0
4.868835250E0,2.368330717E0,6.043652296E-1,3.733206034E0,4.462182763E0
4.878876250E0,2.198259354E0,7.081233263E-1,4.061792850E0,4.672466585E0
4.888916250E0,2.216947794E0,3.356018066E-1,4.042206764E0,4.622436762E0
4.898956250E0,2.134644270E0,3.663093746E-1,3.978546619E0,4.529869967E0
4.908996250E0,2.258063078E0,1.774996817E-1,3.928942442E0,4.535079240E0
4.919037250E0,2.168734789E0,1.034028232E-1,3.803675890E0,4.379732070E0
4.929077250E0,2.087342262E0,9.902309626E-2,3.826068163E0,4.359541361E0
4.939117250E0,2.013146400E0,-8.810791373E-2,3.727749109E0,4.237526974E0
4.949157250E0,1.846678376E0,-4.846841842E-2,3.664602757E0,4.103886399E0
4.959198250E0,1.777870774E0,-2.114842236E-1,3.591794491E0,4.013295121E0
4.969238250E0,1.571450472E0,-3.084909618E-1,3.720920324E0,4.050909937E0
4.979278250E0,1.511898994E0,-4.232023656E-1,3.636034012E0,3.960515389E0
4.989319250E0,1.547210693E0,-5.358648896E-1,3.594547510E0,3.949909355E0
4.999359250E0,1.694869161E0,-6.959986687E-1,3.571916103E0,4.014421536E0
5.009399250E0,1.651264668E0,-5.496159792E-1,3.504783630E0,3.913088425E0
5.019409250E0,1.686660051E0,-7.202140689E-1,3.426555157E0,3.886490792E0
5.029449250E0,1.717736959E0,-7.903821468E-1,3.238470793E0,3.750068969E0
5.039490250E0,1.708518863E0,-6.773748994E-1,3.233957291E0,3.719724884E0
5.049530250E0,1.726808190E0,-8.713111877E-1,3.161422968E0,3.706163096E0
5.059570250E0,1.624873042E0,-8.131440282E-1,3.122845173E0,3.612973510E0
5.069610250E0,1.630484223E0,-8.815544844E-1,3.062979698E0,3.580148285E0
5.079651250E0,1.612255216E0,-7.996487021E-1,3.025056362E0,3.519910641E0
5.089691250E0,1.543600321E0,-7.229783535E-1,3.104662418E0,3.541797338E0
5.099731250E0,1.689670920E0,-8.939767480E-1,3.039551258E0,3.590689919E0
5.109772250E0,1.633829474E0,-8.566457033E-1,2.996259689E0,3.518637910E0
5.119812250E0,1.586468816E0,-9.297702312E-1,2.945003033E0,3.471944534E0
5.129852250E0,1.487240553E0,-9.420547485E-1,2.900458097E0,3.392935129E0
5.139892250E0,1.359130502E0,-9.413119555E-1,2.858125925E0,3.301846108E0
5.149933250E0,1.268297315E0,-9.910356402E-1,2.796489954E0,3.226621419E0
5.159973250E0,1.197214365E0,-1.113954425E0,2.764114857E0,3.211626946E0
5.170013250E0,1.119046926E0,-1.249058127E0,2.689972878E0,3.169915821E0
5.180053250E0,1.021731496E0,-1.246196508E0,2.667418480E0,3.116418190E0
5.190094250E0,8.672499657E-1,-1.244137526E0,2.641226053E0,3.045665075E0
5.200134250E0,7.295331359E-1,-1.288202763E0,2.623492956E0,3.012374519E0
5.210174250E0,6.187444329E-1,-1.324611425E0,2.623991013E0,3.003792426E0
5.220184250E0,5.811312795E-1,-1.431167126E0,2.652797699E0,3.069737536E0
5.230224250E0,4.029314220E-1,-1.318752646E0,2.706218958E0,3.037282226E0
5.240265250E0,3.983134925E-1,-1.435449243E0,2.740796566E0,3.119476556E0
5.250305250E0,4.157712758E-1,-1.540844202E0,2.760143995E0,3.188332085E0
5.260345250E0,4.121682644E-1,-1.619020581E0,2.794883728E0,3.256145785E0
5.270385667E0,4.041933417E-1,-1.701388359E0,2.835351467E0,3.331262906E0
5.280425667E0,3.735062778E-1,-1.805203080E0,2.881404161E0,3.420636643E0
5.290465667E0,3.284003139E-1,-1.795210719E0,2.904375553E0,3.430164084E0
5.300505667E0,3.455374837E-1,-1.803445935E0,2.874148607E0,3.410651494E0
5.310546667E0,3.742265701E-1,-1.830179930E0,2.597809315E0,3.199721447E0
5.320586667E0,3.363207579E-1,-1.764826417E0,2.853159428E0,3.371682466E0
5.330626667E0,3.232817650E-1,-1.770728588E0,2.820882320E0,3.346246838E0
5.340667667E0,2.911169231E-1,-1.809570789E0,2.790073872E0,3.338234221E0
5.350707667E0,2.628742456E-1,-1.837258458E0,2.742399931E0,3.311401349E0
5.360747667E0,2.947850227E-1,-1.818679929E0,2.673883677E0,3.247175512E0
5.370787667E0,2.549769580E-1,-1.707939386E0,2.640616417E0,3.155142668E0
5.380828667E0,2.203119397E-1,-1.587699175E0,2.680819988E0,3.123479123E0
5.390868667E0,1.814942807E-1,-1.702252865E0,2.719070911E0,3.213090663E0
5.400908667E0,1.701159328E-1,-1.879915833E0,2.725456715E0,3.315288415E0
5.410948667E0,1.595054567E-1,-1.792273998E0,2.783200502E0,3.314195696E0
5.420989667E0,3.632093966E-2,-1.812843204E0,2.829268217E0,3.360428296E0
5.430999667E0,-2.986369655E-3,-1.927125812E0,2.864820242E0,3.452682701E0
5.441039667E0,-6.384439021E-2,-1.972051740E0,2.888553858E0,3.498114858E0
5.451079667E0,-1.515419334E-1,-1.964981675E0,2.974979162E0,3.568559787E0
5.461119667E0,-2.604252696E-1,-1.909913421E0,3.072915316E0,3.627450776E0
5.471160667E0,-3.762383759E-1,-1.856387615E0,3.031283379E0,3.574410331E0
5.481200667E0,-4.384117126E-1,-1.861731529E0,2.984796762E0,3.545033262E0
5.491240667E0,-4.483917356E-1,-1.844585776E0,3.022129536E0,3.568867995E0
5.501281667E0,-4.506277144E-1,-1.829728842E0,3.064818859E0,3.597789267E0
5.511321667E0,-4.767005146E-1,-1.826518655E0,3.102271318E0,3.631459914E0
5.521361667E0,-5.302202106E-1,-1.873127222E0,3.117721319E0,3.675585026E0
5.531401667E0,-5.718981028E-1,-1.876156807E0,3.163578987E0,3.722265951E0
5.541442667E0,-6.316125393E-1,-1.930302620E0,3.186800003E0,3.778980929E0
5.551482667E0,-6.818997264E-1,-1.953754783E0,3.217999697E0,3.825920417E0
5.561522667E0,-7.340979576E-1,-1.951016307E0,3.246210814E0,3.857881425E0
5.571562667E0,-7.847632170E-1,-1.944674492E0,3.277350187E0,3.890840068E0
5.581603667E0,-8.635746837E-1,-1.832598567E0,3.368093014E0,3.930423551E0
5.591643667E0,-9.668104649E-1,-1.687981963E0,3.665414095E0,4.149610352E0
5.601683667E0,-1.104054093E0,-1.628874421E0,3.595470428E0,4.098728452E0
5.611724667E0,-1.209796190E0,-1.628164291E0,3.600724697E0,4.132764707E0
5.621764667E0,-1.230836749E0,-1.642105937E0,3.570994854E0,4.118673968E0
5.631774667E0,-1.311068177E0,-1.677951336E0,3.418763876E0,4.027699950E0
5.641814667E0,-1.359278679E0,-1.759984732E0,3.447453022E0,4.102452574E0
5.651854667E0,-1.359136462E0,-1.821378231E0,3.473252535E0,4.150681119E0
5.661895667E0,-1.399162173E0,-1.818367481E0,3.514953136E0,4.197500522E0
5.671935667E0,-1.574696898E0,-1.670982838E0,3.578434706E0,4.251711292E0
5.681975667E0,-1.609051943E0,-1.529437423E0,3.695201397E0,4.310770273E0
5.692015667E0,-1.713598847E0,-1.379877210E0,3.779690981E0,4.373390679E0
5.702056667E0,-1.793711543E0,-1.290486932E0,3.899555922E0,4.482108210E0
5.712096667E0,-1.740975380E0,-1.165821075E0,3.916119814E0,4.441410637E0
5.722136667E0,-1.781688452E0,-1.031293392E0,3.894633532E0,4.405241213E0
5.732177667E0,-1.862792253E0,-9.828123450E-1,3.864314556E0,4.401004666E0
5.742217667E0,-1.990553617E0,-1.014664054E0,3.667706966E0,4.294638662E0
5.752257667E0,-2.064933300E0,-1.102489829E0,3.619643927E0,4.310598046E0
5.762297667E0,-2.111595631E0,-1.119169474E0,3.626414776E0,4.343070405E0
5.772338667E0,-2.161181927E0,-1.083003163E0,3.658415556E0,4.384929595E0
5.782378667E0,-2.237722158E0,-9.701239467E-1,3.667269468E0,4.404248663E0
5.792418667E0,-2.294915676E0,-8.550956249E-1,3.658128500E0,4.402241544E0
5.802458667E0,-2.222981930E0,-4.180125892E-1,3.908292532E0,4.515654294E0
5.812499667E0,-2.298334837E0,-4.971108735E-1,3.937717915E0,4.586402143E0
5.822539667E0,-2.347425222E0,-3.215656877E-1,3.948249817E0,4.604615758E0
5.832579667E0,-2.384356499E0,-2.088519335E-1,3.904566526E0,4.579783270E0
5.842589667E0,-2.410743475E0,-2.660681903E-1,3.737395525E0,4.455401407E0
5.852629667E0,-2.540956020E0,-7.948041707E-2,3.478000402E0,4.308046127E0
5.862670667E0,-2.511450768E0,-9.040576965E-2,3.247866631E0,4.106603927E0
5.872710667E0,-2.534012318E0,-1.625535488E-1,3.169487715E0,4.061193723E0
5.882750667E0,-2.569037676E0,1.126394197E-1,3.177858591E0,4.087961282E0
5.892791667E0,-2.559608459E0,-2.017118968E-2,3.232531071E0,4.123258355E0
5.902831667E0,-2.514588833E0,1.273940206E-1,3.359105349E0,4.197972722E0
5.912871667E0,-2.512272120E0,2.557863295E-1,3.554308414E0,4.360051164E0
5.922911667E0,-2.466395855E0,3.320062757E-1,3.671470165E0,4.435428937E0
5.932952667E0,-2.421319246E0,5.760566592E-1,3.660914421E0,4.426841150E0
5.942992667E0,-2.389093161E0,5.617818236E-1,3.636023283E0,4.386801826E0
5.953032667E0,-2.346925020E0,7.169837356E-1,3.579906702E0,4.340259753E0
5.963073667E0,-2.339503765E0,7.976953983E-1,3.394121408E0,4.198768385E0
5.973113667E0,-2.360548019E0,7.585233450E-1,3.268047571E0,4.102155475E0
5.983153667E0,-2.400742292E0,7.620981336E-1,3.299963951E0,4.151399667E0
5.993193667E0,-2.346397161E0,8.459690213E-1,3.350623608E0,4.177070958E0
6.003234667E0,-2.315851688E0,9.547367692E-1,3.383561850E0,4.209890988E0
6.013274667E0,-2.283416986E0,1.082945108E0,3.428582430E0,4.259335714E0
6.023314667E0,-2.254719734E0,1.234823585E0,3.381772757E0,4.247933302E0
6.033354667E0,-2.263975859E0,1.316909432E0,3.328969955E0,4.235785418E0
6.043395667E0,-2.241862535E0,1.269695401E0,3.297185421E0,4.184436132E0
6.053405667E0,-2.225698948E0,1.271175027E0,3.258798361E0,4.146008745E0
6.063445667E0,-2.173304796E0,1.344171762E0,3.257169008E0,4.139951861E0
6.073485667E0,-2.096028090E0,1.429648995E0,3.252488613E0,4.125034810E0
6.083525667E0,-2.060610533E0,1.481752634E0,3.303690195E0,4.166062354E0
6.093566667E0,-2.024338484E0,1.690006614E0,3.367755651E0,4.277364467E0
6.103606667E0,-1.939752817E0,1.747189999E0,3.418715239E0,4.301502966E0
6.113646667E0,-1.816561341E0,1.776925564E0,3.509247303E0,4.332686949E0
6.123687667E0,-1.633882284E0,1.788697243E0,3.664150715E0,4.392608520E0
6.133727667E0,-1.486402988E0,1.849628448E0,3.773048162E0,4.457175303E0
6.143767667E0,-1.462217450E0,1.997141957E0,3.738562822E0,4.483693549E0
6.153807667E0,-1.367533445E0,1.978615880E0,3.676064491E0,4.393007930E0
6.163848667E0,-1.354206681E0,2.085520983E0,3.530452728E0,4.318260063E0
6.173888667E0,-1.344177485E0,2.195529938E0,3.350813866E0,4.225531727E0
6.183928667E0,-1.268581867E0,2.374968767E0,3.348242044E0,4.296568560E0
6.193969667E0,-1.167892218E0,2.327106476E0,3.419922590E0,4.298286555E0
6.204009667E0,-1.137681365E0,2.498183012E0,3.455202341E0,4.412897061E0
6.214049667E0,-1.099028349E0,2.572613239E0,3.485393286E0,4.469246978E0
6.224089667E0,-1.105864882E0,2.671477318E0,3.500961304E0,4.540535018E0
6.234130667E0,-1.104594588E0,2.760625601E0,3.523416758E0,4.610384860E0
6.244170667E0,-1.077766418E0,2.808740616E0,3.548874617E0,4.652431122E0
6.254180667E0,-1.058523536E0,2.833832741E0,3.577356339E0,4.684928863E0
6.264220667E0,-9.432978630E-1,2.726790667E0,3.674592018E0,4.672025759E0
6.274254042E0,-8.009108901E-1,2.638804436E0,3.841711998E0,4.729006046E0
6.284295042E0,-6.480515599E-1,2.568116426E0,4.104680061E0,4.885037483E0
6.294335042E0,-5.721495748E-1,2.717143774E0,4.124229908E0,4.971870650E0
6.304375042E0,-4.814955890E-1,2.810687304E0,4.140727520E0,5.027666011E0
6.314415042E0,-4.140116870E-1,2.930231571E0,4.145750999E0,5.093615031E0
6.324456042E0,-3.017791510E-1,2.952210188E0,4.132550240E0,5.087689764E0
6.334496042E0,-2.610146999E-1,3.125466824E0,4.129779816E0,5.185725876E0
6.344536042E0,2.089096233E-4,2.963613987E0,4.130889893E0,5.084019985E0
6.354577042E0,2.849285305E-1,2.954030514E0,4.251061440E0,5.184496495E0
6.364617042E0,3.488324285E-1,2.826343298E0,4.618442535E0,5.425855873E0
6.374657042E0,5.058073997E-1,2.938288689E0,4.625311852E0,5.502989303E0
6.384697042E0,7.029646635E-1,2.849899054E0,4.500321865E0,5.372986211E0
6.394738042E0,8.684561849E-1,2.793151617E0,4.234147072E0,5.146252377E0
6.404778042E0,8.690589070E-1,2.887589931E0,4.252573490E0,5.213235107E0
6.414818042E0,1.002440691E0,2.743917227E0,4.246332645E0,5.154154637E0
6.424858042E0,1.102878571E0,2.749825478E0,4.268832684E0,5.196230728E0
6.434899042E0,1.291568279E0,2.534332514E0,4.451070309E0,5.282330622E0
6.444939042E0,1.408803821E0,2.475507736E0,4.663940907E0,5.464907276E0
6.454979042E0,1.574867129E0,2.278194666E0,4.624989510E0,5.390816763E0
6.464989042E0,1.703665137E0,2.387700081E0,4.576323032E0,5.435652589E0
6.475029042E0,1.772057772E0,2.196924210E0,4.207754612E0,5.066740925E0
6.485070042E0,1.712562442E0,2.382964611E0,4.245125771E0,5.160666940E0
6.495110042E0,1.775166273E0,2.278491259E0,4.201547623E0,5.098601783E0
6.505150042E0,1.853552699E0,2.458302975E0,4.196076870E0,5.204418529E0
6.515191042E0,2.100841045E0,2.128241539E0,4.239137650E0,5.187796561E0
6.525231042E0,2.156575203E0,2.058153391E0,4.448263168E0,5.354797587E0
6.535271042E0,2.313777208E0,1.801473498E0,4.571744919E0,5.431364777E0
6.545311042E0,2.409040451E0,1.681246400E0,4.545280933E0,5.411990772E0
6.555352042E0,2.518423557E0,1.508738995E0,4.490749359E0,5.365219508E0
6.565392042E0,2.475583076E0,1.384188294E0,4.330286503E0,5.176472737E0
6.575432042E0,2.347955465E0,1.539524078E0,4.125075817E0,4.989917810E0
6.585473042E0,2.288538218E0,1.533922434E0,4.118201256E0,4.954786251E0
6.595513042E0,2.217289209E0,1.386135578E0,4.203686237E0,4.950628370E0
6.605553042E0,2.107536554E0,1.181132674E0,4.603397369E0,5.198851033E0
6.615593042E0,2.306743383E0,8.561487198E-1,4.334926128E0,4.984540120E0
6.625634042E0,2.341113567E0,8.746409416E-1,4.477777481E0,5.127991876E0
6.635674042E0,2.544111013E0,5.518235564E-1,4.375857353E0,5.091673366E0
6.645714042E0,2.646445513E0,5.428886414E-1,4.322414875E0,5.097222016E0
6.655754042E0,2.824755907E0,3.539634049E-1,4.216131687E0,5.087268661E0
6.665764042E0,3.016919851E0,3.764714003E-1,3.915983915E0,4.957667408E0
6.675805042E0,3.107736826E0,4.785766304E-1,3.895402193E0,5.006118458E0
6.685845042E0,3.133334637E0,2.148365974E-1,3.908472538E0,5.013990256E0
6.695885042E0,2.660012722E0,2.228632867E-1,3.900981426E0,4.726837401E0
6.705925042E0,2.297379494E0,1.582917571E-1,4.042233944E0,4.652167675E0
6.715966042E0,2.235175371E0,-7.140406221E-2,4.153309822E0,4.717106100E0
6.726006042E0,2.265793324E0,1.042555645E-2,4.387739658E0,4.938237275E0
6.736046042E0,2.573430300E0,-4.637538195E-1,4.303361416E0,5.035526843E0
6.746087042E0,2.611414433E0,-6.696693897E-1,4.218735695E0,5.006563022E0
6.756127042E0,2.440968275E0,-6.175754666E-1,3.964211702E0,4.696243179E0
6.766167042E0,2.420885801E0,-6.885905266E-1,4.039350986E0,4.759327827E0
6.776207042E0,2.452398539E0,-7.326129079E-1,4.037177086E0,4.780144254E0
6.786248042E0,2.496525526E0,-8.840383887E-1,4.023976803E0,4.817318018E0
6.796288042E0,2.441958189E0,-9.819973111E-1,4.022253036E0,4.806869876E0
6.806328042E0,2.325105667E0,-9.318190813E-1,4.041769028E0,4.755028921E0
6.816369042E0,2.323074579E0,-1.165576458E0,4.047210693E0,4.809902117E0
6.826409042E0,2.378258228E0,-1.381567597E0,4.071637630E0,4.913560239E0
6.836449042E0,2.351171494E0,-1.591593385E0,3.978040695E0,4.887328991E0
6.846489042E0,2.303909540E0,-1.633630753E0,3.941757202E0,4.849144094E0
6.856530042E0,2.200497150E0,-1.643124223E0,3.964570761E0,4.822848353E0
6.866570042E0,2.080658436E0,-1.662448645E0,3.968550920E0,4.779358893E0
6.876580042E0,2.030696392E0,-1.673495173E0,3.975086212E0,4.767140057E0
6.886620042E0,1.982648730E0,-1.773936272E0,3.964086056E0,4.774067882E0
6.896660042E0,1.861545563E0,-1.782246351E0,3.950122118E0,4.716483721E0
6.906701042E0,1.822168827E0,-1.940598726E0,3.931828499E0,4.748209978E0
6.916741042E0,1.773532033E0,-2.043486357E0,3.942031145E0,4.781303369E0
6.926781042E0,1.652589798E0,-2.102922201E0,3.923421383E0,4.748322880E0
6.936821042E0,1.536531210E0,-2.172889948E0,3.887821436E0,4.711425942E0
6.946862042E0,1.467364311E0,-2.260091066E0,3.851969242E0,4.700939980E0
6.956902042E0,1.402851820E0,-2.316993475E0,3.845800877E0,4.703895872E0
6.966942042E0,1.358685613E0,-2.343403816E0,3.840406656E0,4.699605444E0
6.976983042E0,1.312458634E0,-2.408542633E0,3.843358040E0,4.721760933E0
6.987023042E0,1.230970740E0,-2.459738016E0,3.852098465E0,4.733314130E0
6.997063042E0,1.112147093E0,-2.470969200E0,3.844759226E0,4.703693596E0
7.007103042E0,9.456659555E-1,-2.449019909E0,3.896980762E0,4.698770230E0
7.017144042E0,7.889099717E-1,-2.451169252E0,4.099518776E0,4.841142824E0
7.027184042E0,6.238070726E-1,-2.518016815E0,4.098587036E0,4.850562817E0
7.037224042E0,4.497853220E-1,-2.563372612E0,4.078069687E0,4.837751374E0
7.047265042E0,3.689424098E-1,-2.517914057E0,3.980577946E0,4.724511666E0
7.057305042E0,3.336468339E-1,-2.496792078E0,3.833897114E0,4.587380295E0
7.067345042E0,3.084352016E-1,-2.462072134E0,3.806548834E0,4.543869000E0
7.077385042E0,2.831533253E-1,-2.469165802E0,3.810133457E0,4.549073810E0
7.087395042E0,2.233256847E-1,-2.421910763E0,3.825267792E0,4.533012220E0
7.097435042E0,9.335045516E-2,-2.425940752E0,3.833683491E0,4.537734231E0
7.107476042E0,-4.133412242E-2,-2.422015429E0,3.865315199E0,4.561636640E0
7.117516042E0,-1.748415977E-1,-2.341074944E0,3.979548454E0,4.620390392E0
7.127556042E0,-3.266974390E-1,-2.287575245E0,3.939207554E0,4.566956084E0
7.137597042E0,-4.335246682E-1,-2.213293076E0,3.922457933E0,4.524631047E0
7.147637042E0,-4.888097346E-1,-2.138615370E0,3.919549942E0,4.491712636E0
7.157677042E0,-5.402749777E-1,-2.042702913E0,3.870153904E0,4.409379036E0
7.167717042E0,-6.000517607E-1,-1.976047993E0,3.779933453E0,4.307287394E0
7.177758042E0,-6.375259757E-1,-1.964182854E0,3.792472839E0,4.318252412E0
7.187798042E0,-6.833736300E-1,-1.946861148E0,3.783109903E0,4.309198114E0
7.197838042E0,-7.382670045E-1,-1.969869614E0,3.774763107E0,4.321372581E0
7.207879042E0,-8.134472370E-1,-1.901879668E0,3.767134905E0,4.297691016E0
7.217919042E0,-8.675200343E-1,-1.730144978E0,3.869098663E0,4.326189677E0
7.227959042E0,-9.450979233E-1,-1.607418060E0,3.898597479E0,4.321581332E0
7.237999042E0,-1.016538858E0,-1.485886693E0,3.910526991E0,4.305047254E0
7.248040042E0,-1.206784725E0,-1.441617489E0,3.906540871E0,4.335395245E0
7.258080042E0,-1.453265071E0,-1.702681661E0,3.875413418E0,4.475481355E0
7.268139292E0,-1.609253526E0,-1.992048979E0,3.656867981E0,4.464374477E0
7.278180292E0,-1.630009770E0,-2.160486698E0,3.626214743E0,4.524827951E0
7.288189292E0,-1.545278907E0,-2.147947073E0,3.664728880E0,4.520155007E0
7.298230292E0,-1.580269456E0,-2.098582983E0,3.644959211E0,4.492997857E0
7.308270292E0,-1.489404321E0,-1.787534118E0,3.723510027E0,4.390686777E0
7.318310292E0,-1.499359131E0,-1.446066141E0,3.926122189E0,4.444504531E0
7.328350292E0,-1.542330623E0,-1.230029702E0,4.008903503E0,4.468004489E0
7.338391292E0,-1.648026228E0,-1.199110985E0,4.015256405E0,4.502903685E0
7.348431292E0,-1.773387074E0,-1.201537371E0,4.018194675E0,4.553513173E0
7.358471292E0,-1.805483222E0,-1.202587485E0,3.971592665E0,4.525431982E0
7.368512292E0,-1.860370994E0,-1.202560902E0,3.932966471E0,4.513907201E0
7.378552292E0,-1.941796899E0,-9.804871082E-1,4.052564621E0,4.599479337E0
7.388592292E0,-2.059473038E0,-8.132176995E-1,4.113514423E0,4.671590000E0
7.398632292E0,-2.329243660E0,-6.672693491E-1,4.094027042E0,4.757276725E0
7.408673292E0,-2.352006197E0,-6.125949025E-1,3.869316339E0,4.569334153E0
7.418713292E0,-2.192005157E0,-7.227701545E-1,3.576362610E0,4.256483622E0
7.428753292E0,-2.014535904E0,-6.133906841E-1,3.767101765E0,4.315745445E0
7.438794292E0,-1.988677382E0,-4.735249877E-1,4.027844906E0,4.516923536E0
7.448834292E0,-2.088186026E0,-6.869642735E-1,4.084860325E0,4.638806384E0
7.458874292E0,-2.076403856E0,-4.765585959E-1,4.110962391E0,4.630180650E0
7.468914292E0,-2.052876949E0,-5.549799204E-1,4.098331451E0,4.617209890E0
7.478955292E0,-2.022160292E0,-2.311032712E-1,4.154105186E0,4.625919462E0
7.488995292E0,-2.207029343E0,5.213935860E-3,4.317521572E0,4.848917222E0
7.499005292E0,-2.335046053E0,-2.053268552E-1,4.351083755E0,4.942320208E0
7.509045292E0,-2.435995102E0,2.139132768E-1,4.372277260E0,5.009654625E0
7.519085292E0,-2.554222822E0,6.269028038E-2,4.386508465E0,5.076360981E0
7.529126292E0,-2.437322617E0,2.930880785E-1,4.209555149E0,4.873068511E0
7.539166292E0,-2.294530630E0,1.330439299E-1,4.372143269E0,4.939454247E0
7.549206292E0,-2.312025070E0,4.704403281E-1,4.339252949E0,4.939219592E0
7.559246292E0,-2.405663252E0,2.392091155E-1,4.302364826E0,4.935056208E0
7.569287292E0,-2.157404423E0,6.971284747E-1,4.344149590E0,4.900205874E0
7.579327292E0,-2.174267292E0,7.606487274E-1,4.450292587E0,5.011100563E0
7.589367292E0,-2.183879375E0,8.762310147E-1,4.467888355E0,5.049666947E0
7.599408292E0,-2.066184044E0,1.024787903E0,4.471450329E0,5.031220010E0
7.609448292E0,-2.084497929E0,1.242266774E0,4.477293491E0,5.092594168E0
7.619488292E0,-2.120323896E0,1.388567209E0,4.266663074E0,4.962691418E0
7.629528292E0,-2.153171301E0,8.406604528E-1,4.355135918E0,4.930523857E0
7.639569292E0,-1.756259441E0,1.246638298E0,4.366841793E0,4.869071936E0
7.649609292E0,-1.717625260E0,1.209318280E0,4.373071194E0,4.851436787E0
7.659649292E0,-1.771867633E0,1.272514820E0,4.408695221E0,4.918882233E0
7.669690292E0,-1.645457983E0,1.078950763E0,4.277687073E0,4.708531981E0
7.679730292E0,-1.422467709E0,1.451615334E0,4.385101318E0,4.833188909E0
7.689770292E0,-1.533179402E0,1.546079516E0,4.329929829E0,4.846575417E0
7.699780292E0,-1.417301655E0,1.732634664E0,4.366046429E0,4.906437432E0
7.709820292E0,-1.220038056E0,1.693719745E0,4.086738586E0,4.588966300E0
7.719860292E0,-1.300067902E0,1.936770439E0,4.266262531E0,4.862329922E0
7.729901292E0,-1.262344599E0,1.893057108E0,4.177737236E0,4.757170116E0
7.739941292E0,-1.255494595E0,1.945651174E0,4.125243664E0,4.730693443E0
7.749981292E0,-9.967195392E-1,1.850438356E0,4.230294704E0,4.723660153E0
7.760022292E0,-9.485669136E-1,2.030958652E0,4.133828640E0,4.702458023E0
7.770062292E0,-7.952846885E-1,1.972441912E0,4.142845631E0,4.656841714E0
7.780102292E0,-7.224457264E-1,2.124415636E0,4.101270199E0,4.674985226E0
7.790142292E0,-6.328564286E-1,2.099335909E0,4.078429222E0,4.630475509E0
7.800183292E0,-4.642650783E-1,2.067356586E0,3.935659647E0,4.469778761E0
7.810223292E0,-4.620091021E-1,1.995522738E0,3.946947336E0,4.446791729E0
7.820263292E0,-3.700108230E-1,1.865468144E0,3.843116522E0,4.287939366E0
7.830304292E0,-3.328466713E-1,1.838062048E0,3.779997110E0,4.216353537E0
7.840344292E0,-2.600622177E-1,1.784001470E0,3.749812126E0,4.160695204E0
7.850384292E0,1.531582698E-2,1.672784686E0,3.774092674E0,4.128222220E0
7.860424292E0,3.050543368E-2,1.798534870E0,3.734036207E0,4.144717681E0
7.870465292E0,1.286064386E-1,1.829071522E0,3.746417046E0,4.171052976E0
7.880505292E0,1.754324287E-1,2.047203064E0,3.735864162E0,4.263624979E0
7.890545292E0,3.325158060E-1,2.141947508E0,3.764525890E0,4.343979865E0
7.900586292E0,4.007259309E-1,2.270546675E0,3.662199736E0,4.327547848E0
7.910595292E0,3.868844211E-1,2.236688852E0,3.667760611E0,4.313342610E0
7.920636292E0,4.713081121E-1,2.196813822E0,3.714007378E0,4.340734167E0
7.930676292E0,5.484223366E-1,2.239215374E0,3.692745209E0,4.353299866E0
7.940716292E0,6.152332425E-1,2.152596712E0,3.692600489E0,4.318273141E0
7.950756292E0,6.497794986E-1,2.017949820E0,3.516166925E0,4.105820834E0
7.960797292E0,6.112126112E-1,2.028450727E0,3.530365944E0,4.117241420E0
7.970837292E0,6.407707930E-1,2.153860092E0,3.528495789E0,4.183298105E0
7.980877292E0,6.561881304E-1,2.213340044E0,3.551286936E0,4.235693085E0
7.990918292E0,7.576460242E-1,2.345622063E0,3.552837133E0,4.324190335E0
8.000958292E0,8.836525083E-1,2.380392313E0,3.589072704E0,4.396424934E0
8.010998292E0,1.152118087E0,2.198096752E0,3.917669773E0,4.637579311E0
8.021038292E0,1.262135506E0,2.314178228E0,3.955172300E0,4.753082666E0
8.031079292E0,1.585367918E0,1.997910619E0,3.966203451E0,4.715485987E0
8.041119292E0,1.695134282E0,2.103614092E0,3.902519941E0,4.746402256E0
8.051159292E0,1.902709365E0,2.073708057E0,3.547682762E0,4.528423679E0
8.061200292E0,1.873008728E0,2.258144379E0,3.638091803E0,4.673659133E0
8.071240292E0,1.827058315E0,2.277555466E0,3.645927906E0,4.670994678E0
8.081280292E0,1.743054390E0,2.071938038E0,3.712526560E0,4.594999379E0
8.091320292E0,1.696143270E0,1.994217396E0,3.766773462E0,4.587198200E0
8.101361292E0,1.760381103E0,1.886710763E0,3.802860022E0,4.595689662E0
8.111370292E0,1.820136547E0,1.882994056E0,3.851082087E0,4.657187660E0
8.121411292E0,1.917258024E0,1.638944983E0,4.099058628E0,4.812930565E0
8.131451292E0,2.030147076E0,1.435101032E0,4.194911480E0,4.876299257E0
8.141491292E0,2.129413366E0,1.256083608E0,4.088748932E0,4.778076511E0
8.151532292E0,2.413447618E0,1.316972017E0,3.820609331E0,4.707037323E0
8.161572292E0,2.563299417E0,1.528260708E0,3.835350990E0,4.859629812E0
8.171612292E0,2.583614826E0,1.415674210E0,3.876020670E0,4.868545499E0
8.181652292E0,2.353007793E0,1.352556467E0,3.907019615E0,4.757190026E0
8.191693292E0,2.296916008E0,1.302884698E0,3.935210228E0,4.739115025E0
8.201733292E0,2.354185820E0,1.207624197E0,3.948600531E0,4.753103536E0
8.211773292E0,2.442431450E0,1.139650226E0,4.012187958E0,4.833417656E0
8.221814292E0,2.399047375E0,9.761049747E-1,4.299157143E0,5.019059809E0
8.231854292E0,2.388302326E0,6.847404838E-1,4.274610996E0,4.944204355E0
8.241894292E0,2.397979736E0,5.849295259E-1,4.240286350E0,4.906371133E0
8.251934292E0,2.451157808E0,3.241703510E-1,4.086938858E0,4.776644245E0
8.261975292E0,2.458407879E0,3.365601301E-1,3.964923620E0,4.677356233E0
8.272035542E0,2.469391823E0,3.223052919E-1,3.936977863E0,4.658494539E0
8.282075542E0,2.456184626E0,3.049492240E-1,3.934876680E0,4.648557995E0
8.292116542E0,2.391147137E0,3.300497830E-1,3.928081036E0,4.610459642E0
8.302156542E0,2.393539667E0,2.616766095E-1,3.914524078E0,4.595759518E0
8.312196542E0,2.210128784E0,1.279757917E-1,4.117088318E0,4.674554873E0
8.322206542E0,1.989303708E0,1.027146429E-1,4.248111725E0,4.691943389E0
8.332246542E0,2.057949781E0,-1.946656406E-1,4.161982059E0,4.647057852E0
8.342286542E0,2.169002295E0,-5.503811240E-1,4.094966412E0,4.666501928E0
8.352327542E0,2.132746458E0,-5.735740662E-1,3.944631577E0,4.520808881E0
8.362367542E0,2.212423563E0,-7.755104303E-1,3.852271318E0,4.509570796E0
8.372407542E0,2.132819176E0,-6.098407507E-1,3.828980684E0,4.425145925E0
8.382448542E0,2.097076178E0,-6.328826547E-1,3.831665277E0,4.413607113E0
8.392488542E0,2.000126839E0,-6.439009905E-1,3.824033737E0,4.363295759E0
8.402528542E0,1.911741495E0,-5.707524419E-1,3.849356890E0,4.335673230E0
8.412568542E0,1.591585159E0,-4.343730509E-1,4.106671333E0,4.425672006E0
8.422609542E0,1.598386884E0,-6.929365993E-1,4.054652214E0,4.413072211E0
8.432649542E0,1.798328757E0,-1.178142905E0,4.033163548E0,4.570384582E0
8.442689542E0,1.779020667E0,-1.309446096E0,3.986948967E0,4.557995796E0
8.452730542E0,1.802921534E0,-1.360878348E0,3.798668861E0,4.419547607E0
8.462770542E0,1.813281775E0,-1.398034573E0,3.730636358E0,4.377229614E0
8.472810542E0,1.828714013E0,-1.442198515E0,3.715682983E0,4.385251593E0
8.482850542E0,1.770853162E0,-1.395622134E0,3.727816105E0,4.356638036E0
8.492891542E0,1.719294667E0,-1.412003994E0,3.732043982E0,4.344868434E0
8.502931542E0,1.627509356E0,-1.381863475E0,3.761719942E0,4.325375162E0
8.512971542E0,1.343685865E0,-1.250587225E0,3.911636591E0,4.320921306E0
8.522981542E0,1.411268830E0,-1.762334108E0,4.026019096E0,4.615878138E0
8.533021542E0,1.433901787E0,-1.982654214E0,3.996744394E0,4.686252001E0
8.543062542E0,1.425427079E0,-2.175422668E0,3.981862783E0,4.756000144E0
8.553102542E0,1.310694098E0,-2.150623322E0,3.939176798E0,4.675490727E0
8.563142542E0,1.215014696E0,-2.122428656E0,3.707870722E0,4.441764222E0
8.573182542E0,1.156015515E0,-2.056798458E0,3.745704412E0,4.426860435E0
8.583223542E0,1.085921049E0,-2.034622669E0,3.737391233E0,4.391697526E0
8.593263542E0,1.008581519E0,-1.979164958E0,3.797277451E0,4.399277969E0
8.603303542E0,7.888625264E-1,-1.971463799E0,3.840454102E0,4.388400768E0
8.613344542E0,5.615563989E-1,-2.022633553E0,3.976509809E0,4.496556721E0
8.623384542E0,4.556533992E-1,-2.162329674E0,4.099948883E0,4.657560572E0
8.633424542E0,3.879998028E-1,-2.322744131E0,4.060513973E0,4.693981026E0
8.643464542E0,2.473950386E-1,-2.202161789E0,3.958058596E0,4.536182172E0
8.653505542E0,2.754431665E-1,-2.165214300E0,3.836442471E0,4.413877290E0
8.663545542E0,2.951737344E-1,-2.219846487E0,3.824647188E0,4.432016705E0
8.673585542E0,2.834166586E-1,-2.197619200E0,3.845424175E0,4.438146261E0
8.683626542E0,3.114911616E-1,-2.254486799E0,3.878695250E0,4.497111774E0
8.693666542E0,2.622298896E-1,-2.337343216E0,3.903555870E0,4.557377124E0
8.703706542E0,1.670032591E-1,-2.319654226E0,3.918359995E0,4.556559104E0
8.713746542E0,-1.286371797E-1,-2.265219927E0,3.961719513E0,4.565412395E0
8.723787542E0,-3.340824544E-1,-2.051460981E0,4.223300457E0,4.707055342E0
8.733796542E0,-5.304072499E-1,-1.910948277E0,4.201527119E0,4.646061267E0
8.743837542E0,-6.898673177E-1,-1.999964833E0,3.986552000E0,4.513133401E0
8.753877542E0,-8.181560040E-1,-2.122200251E0,3.908581018E0,4.522180749E0
8.763917542E0,-9.486244321E-1,-2.220764160E0,3.897191763E0,4.584733951E0
8.773958542E0,-1.071556449E0,-2.332206964E0,3.902384281E0,4.670762853E0
8.783998542E0,-1.206936359E0,-2.403189898E0,3.864221096E0,4.707889308E0
8.794038542E0,-1.256111145E0,-2.448530912E0,3.611799955E0,4.540728769E0
8.804078542E0,-1.287819505E0,-2.487728834E0,3.502763510E0,4.485156188E0
8.814119542E0,-1.343893170E0,-2.442392588E0,3.532496929E0,4.499984996E0
8.824159542E0,-1.383016706E0,-2.398269415E0,3.553506374E0,4.504646373E0
8.834199542E0,-1.370056391E0,-2.364477396E0,3.572412252E0,4.497770244E0
8.844240542E0,-1.361398578E0,-2.382269382E0,3.586924553E0,4.516042653E0
8.854280542E0,-1.334938526E0,-2.404189348E0,3.630217791E0,4.554192409E0
8.864320542E0,-1.298987985E0,-2.441412926E0,3.668823242E0,4.594358589E0
8.874360542E0,-1.304773450E0,-2.422826052E0,3.740274191E0,4.643508464E0
8.884401542E0,-1.360537410E0,-2.330091238E0,3.899162769E0,4.741714618E0
8.894441542E0,-1.460584641E0,-2.243921757E0,4.218456745E0,4.996385659E0
8.904481542E0,-1.602287769E0,-2.210069180E0,4.204802036E0,5.013191801E0
8.914522542E0,-1.722653031E0,-2.143480539E0,4.230762005E0,5.045928005E0
8.924562542E0,-1.819290042E0,-1.923564196E0,4.381134987E0,5.119009596E0
8.934602542E0,-1.939936042E0,-1.827426553E0,4.765459061E0,5.460076896E0
8.944612542E0,-2.085019827E0,-1.685427666E0,4.682106495E0,5.395377218E0
8.954652542E0,-2.173217058E0,-1.552908659E0,4.670448303E0,5.380286706E0
8.964692542E0,-2.260148048E0,-1.402416348E0,4.646236420E0,5.353742026E0
8.974733542E0,-2.407897234E0,-1.216039538E0,4.969510078E0,5.654445302E0
8.984773542E0,-2.455906391E0,-9.790769219E-1,4.846566677E0,5.520803961E0
8.994813542E0,-2.594789267E0,-7.744883895E-1,4.930707455E0,5.625356843E0
9.004854542E0,-2.751351118E0,-5.215744972E-1,4.908205509E0,5.650880839E0
9.014894542E0,-2.655123949E0,-6.037953496E-1,4.714303970E0,5.444163291E0
9.024934542E0,-2.719315290E0,-2.020953298E-1,4.788084984E0,5.510106713E0
9.034974542E0,-2.796031713E0,-2.419700325E-1,4.787494659E0,5.549454744E0
9.045015542E0,-2.840255022E0,-4.689034522E-1,4.615975380E0,5.440050344E0
9.055055542E0,-2.881082535E0,-2.985836565E-1,4.517888069E0,5.366665760E0
9.065095542E0,-2.898553133E0,-2.811207473E-1,4.518864155E0,5.375943860E0
9.075136542E0,-2.840856552E0,2.001219243E-2,4.517374039E0,5.336434638E0
9.085176542E0,-2.823220015E0,1.468851510E-2,4.721163750E0,5.500924845E0
9.095216542E0,-2.699541330E0,2.142564803E-1,4.847939491E0,5.553012385E0
9.105256542E0,-2.741492271E0,1.457256228E-1,4.938826084E0,5.650576866E0
9.115297542E0,-2.668913126E0,4.955129623E-1,4.969852448E0,5.662867094E0
9.125337542E0,-2.616463900E0,5.688917637E-1,4.875338078E0,5.562233593E0
9.135377542E0,-2.303539038E0,8.659956455E-1,4.926504612E0,5.506967246E0
9.145387542E0,-2.255541325E0,1.196583986E0,5.015296936E0,5.627831133E0
9.155427542E0,-2.195017815E0,1.302638173E0,5.084647655E0,5.689341895E0
9.165468542E0,-2.202862501E0,1.410335183E0,4.885148048E0,5.541328359E0
9.175508542E0,-2.113711834E0,1.194529653E0,4.436965466E0,5.057800050E0
9.185548542E0,-1.865431309E0,7.310357094E-1,4.895519733E0,5.289646551E0
9.195588542E0,-1.853037477E0,1.507137537E0,4.840319633E0,5.397583311E0
9.205629542E0,-2.022822857E0,1.640734792E0,4.708010197E0,5.380444496E0
9.215669542E0,-1.942374945E0,1.256899834E0,4.630349159E0,5.176171457E0
9.225709542E0,-1.878063202E0,1.595408440E0,4.615033627E0,5.231728668E0
9.235750542E0,-1.904579759E0,1.657727718E0,4.675418377E0,5.313663731E0
9.245790542E0,-1.916563988E0,1.893387198E0,4.630020618E0,5.356792280E0
9.255830542E0,-1.913094878E0,2.024239063E0,4.562330723E0,5.345309853E0
9.265870542E0,-1.566071987E0,1.963840604E0,4.829838276E0,5.443949775E0
9.275904042E0,-1.565938234E0,2.546525478E0,4.980006695E0,5.808392312E0
9.285944042E0,-1.423983455E0,2.425554037E0,4.893134594E0,5.643917737E0
9.295984042E0,-1.404273391E0,2.605572701E0,4.489961147E0,5.377801034E0
9.306025042E0,-1.304605246E0,2.648882389E0,4.580318928E0,5.449577437E0
9.316065042E0,-1.188600898E0,2.752454758E0,4.565457344E0,5.461884295E0
9.326105042E0,-1.043380618E0,2.842777967E0,4.548931599E0,5.464687400E0
9.336145042E0,-1.004153609E0,3.027084112E0,4.527799606E0,5.538278791E0
9.346186042E0,-8.644783497E-1,3.038972378E0,4.596207142E0,5.577436331E0
9.356195042E0,-6.185969710E-1,2.962640762E0,4.862763405E0,5.727684561E0
9.366236042E0,-5.121267438E-1,3.017128468E0,4.850640297E0,5.735333406E0
9.376276042E0,-4.546669424E-1,3.057341337E0,4.504395962E0,5.462933375E0
9.386316042E0,-4.036805630E-1,3.107240677E0,4.565747261E0,5.537504011E0
9.396357042E0,-3.296918273E-1,3.193396330E0,4.578793526E0,5.592121867E0
9.406397042E0,-7.148338482E-3,3.128194571E0,4.547015190E0,5.519148441E0
9.416437042E0,1.239534914E-1,3.215507507E0,4.522174358E0,5.550217466E0
9.426477042E0,3.391536474E-1,3.213775873E0,4.527004719E0,5.562117608E0
9.436518042E0,5.461025834E-1,3.120786190E0,4.697772980E0,5.666269094E0
9.446558042E0,6.931031346E-1,3.060636997E0,4.924286842E0,5.839220127E0
9.456598042E0,8.770929575E-1,3.034407616E0,4.704987049E0,5.666906102E0
9.466639042E0,9.352889061E-1,3.129843473E0,4.392643929E0,5.474121499E0
9.476679042E0,9.318747520E-1,3.078199625E0,4.450115204E0,5.490649216E0
9.486719042E0,9.948976040E-1,3.113991022E0,4.446526051E0,5.518908882E0
9.496759042E0,1.153600454E0,3.136028528E0,4.439716816E0,5.556667557E0
9.506800042E0,1.166571021E0,3.190808058E0,4.438520432E0,5.589508711E0
9.516840042E0,1.410803676E0,2.743571520E0,4.862325668E0,5.758451406E0
9.526880042E0,1.396725655E0,2.835282087E0,4.913449764E0,5.842230366E0
9.536921042E0,1.718676805E0,2.393999338E0,4.843932629E0,5.669988193E0
9.546961042E0,1.808636904E0,2.551700592E0,4.638433456E0,5.594408663E0
9.556971042E0,2.058626175E0,2.377793550E0,4.402365685E0,5.410422120E0
9.567011042E0,2.050900221E0,2.572871923E0,4.402304173E0,5.496011616E0
9.577051042E0,2.156407118E0,2.437304735E0,4.400324345E0,5.472969977E0
9.587091042E0,2.181149960E0,2.427266598E0,4.411190033E0,5.487042536E0
9.597132042E0,2.332951307E0,2.013932943E0,4.833888054E0,5.732805720E0
9.607172042E0,2.306961775E0,2.029592752E0,4.719418049E0,5.631538519E0
9.617212042E0,2.437983274E0,1.634742022E0,4.745147705E0,5.579656859E0
9.627253042E0,2.472325802E0,1.593320727E0,4.675354481E0,5.523586274E0
9.637293042E0,2.531496763E0,1.496566415E0,4.545631409E0,5.413958977E0
9.647333042E0,2.617080688E0,1.329351664E0,4.423476696E0,5.308807141E0
9.657373042E0,2.652693510E0,1.426065445E0,4.383573055E0,5.318473300E0
9.667414042E0,2.792045593E0,1.271360517E0,4.370591640E0,5.339845264E0
9.677454042E0,2.812719822E0,1.282270551E0,4.509405136E0,5.467206347E0
9.687494042E0,2.882927418E0,1.123892426E0,4.605105400E0,5.548098812E0
9.697535042E0,2.768491268E0,8.577384949E-1,4.611805916E0,5.446926935E0
9.707575042E0,2.652282476E0,6.980690360E-1,4.568665981E0,5.328659453E0
9.717615042E0,2.719893694E0,5.719079375E-1,4.560709000E0,5.340876986E0
9.727655042E0,2.837063551E0,4.576998651E-1,4.416490078E0,5.269136871E0
9.737696042E0,2.840141535E0,4.460429549E-1,4.424503326E0,5.276512858E0
9.747736042E0,2.654265165E0,1.828261465E-1,4.365922928E0,5.112712781E0
9.757776042E0,2.348399639E0,3.041301966E-1,4.356934071E0,4.958865852E0
9.767786042E0,2.254481554E0,2.074041590E-2,4.491141319E0,5.025282837E0
9.777826042E0,2.216640234E0,6.247614324E-2,4.637305260E0,5.140233192E0
9.787867042E0,2.413807869E0,-2.070940733E-1,4.618008137E0,5.214916637E0
9.797907042E0,2.627852678E0,-4.436312318E-1,4.566444874E0,5.287233412E0
9.807947042E0,2.674232244E0,-5.829718113E-1,4.472880363E0,5.243856689E0
9.817987042E0,2.572940111E0,-5.708847642E-1,4.344082355E0,5.081041403E0
9.828028042E0,2.390328407E0,-5.305694938E-1,4.450904369E0,5.079933424E0
9.838068042E0,1.891017675E0,-3.662410080E-1,4.732280731E0,5.109262299E0
9.848108042E0,1.752279997E0,-5.914309621E-1,4.674866676E0,5.027390398E0
9.858149042E0,1.738782525E0,-8.587518930E-1,4.471132755E0,4.873586728E0
9.868189042E0,1.850379586E0,-8.192800879E-1,4.504172802E0,4.937883869E0
9.878229042E0,1.884472847E0,-1.133225679E0,4.543149471E0,5.047340435E0
9.888269042E0,1.799942732E0,-1.061100841E0,4.469294071E0,4.933590815E0
9.898310042E0,1.804918289E0,-1.116949201E0,4.418992043E0,4.902325593E0
9.908350042E0,1.697236180E0,-1.215767145E0,4.434291840E0,4.901188072E0
9.918390042E0,1.648606062E0,-1.126472354E0,4.555989742E0,4.974322511E0
9.928431042E0,1.790829182E0,-1.520457387E0,4.548353195E0,5.119216406E0
9.938471042E0,1.649198055E0,-1.630338907E0,4.512991905E0,5.073948671E0
9.948511042E0,1.500056744E0,-1.752124548E0,4.293396950E0,4.873742713E0
9.958551042E0,1.369156837E0,-1.614156008E0,4.385715485E0,4.869762866E0
9.968561042E0,1.229917765E0,-1.625554085E0,4.341090679E0,4.795851548E0
9.978601042E0,1.110394478E0,-1.653325796E0,4.264779091E0,4.706888864E0
9.988642042E0,1.073617935E0,-1.790408254E0,4.210974216E0,4.700055429E0
9.998682042E0,8.185592890E-1,-1.772070169E0,4.147468567E0,4.583859456E0
1.000872204E1,7.265341878E-1,-1.823965311E0,4.200850487E0,4.637008324E0
1.001876304E1,6.830173135E-1,-1.932237744E0,4.232433796E0,4.702504778E0
1.002880304E1,6.934388280E-1,-2.006721973E0,3.975299358E0,4.506749990E0
1.003884304E1,6.186269522E-1,-1.970876932E0,3.946114779E0,4.454085432E0
1.004888304E1,5.076863766E-1,-1.917030931E0,4.085985184E0,4.541808887E0
1.005892404E1,4.111552835E-1,-1.853766203E0,4.025931358E0,4.451249387E0
1.006896404E1,3.409045041E-1,-1.777060866E0,3.925845623E0,4.322779784E0
1.007900404E1,3.221934140E-1,-1.681931376E0,3.819541454E0,4.185880872E0
1.008904504E1,3.512110114E-1,-1.643590093E0,3.787863731E0,4.143989529E0
1.009908504E1,4.139947593E-1,-1.712084413E0,3.794752359E0,4.183631218E0
1.010912504E1,4.033192396E-1,-1.715448141E0,3.840909481E0,4.225874392E0
1.011916504E1,2.054719478E-1,-2.030175447E0,3.852790833E0,4.359796815E0
1.012920604E1,-1.057177875E-2,-1.959642768E0,4.021027565E0,4.473139191E0
1.013924604E1,-9.706752747E-2,-2.114044189E0,4.167090893E0,4.673676438E0
1.014928604E1,-2.063526809E-1,-2.178505659E0,4.083815575E0,4.633143424E0
1.015932704E1,-3.250657618E-1,-2.137598753E0,4.075952053E0,4.613933389E0
1.016936704E1,-4.332441688E-1,-2.025681257E0,4.071708202E0,4.568357774E0
1.017937704E1,-5.018527508E-1,-2.124189615E0,4.013752460E0,4.568834263E0
1.018941704E1,-5.116860271E-1,-2.261564493E0,4.013329983E0,4.635009611E0
1.019945704E1,-5.844156146E-1,-2.331360102E0,3.807114124E0,4.502321567E0
1.020949704E1,-5.495529771E-1,-2.325001717E0,3.980287075E0,4.642232939E0
1.021953804E1,-6.998761892E-1,-2.226709843E0,4.213135719E0,4.816490008E0
1.022957804E1,-8.118169904E-1,-2.084334373E0,4.187081337E0,4.747119835E0
1.023961804E1,-9.501000047E-1,-1.925746083E0,4.128592968E0,4.653651028E0
1.024965904E1,-9.731323123E-1,-1.803841829E0,4.084583759E0,4.569973340E0
1.025969904E1,-1.031701565E0,-1.664961338E0,4.060619354E0,4.508340484E0
1.026973088E1,-1.052099824E0,-1.574720025E0,4.046198845E0,4.467480530E0
1.027977088E1,-1.073511839E0,-1.571496010E0,4.018246174E0,4.446158982E0
1.028981188E1,-1.197994232E0,-1.663224578E0,3.947981119E0,4.448377355E0
1.029985187E1,-1.537034154E0,-1.798606038E0,4.174142361E0,4.798012309E0
1.030989188E1,-1.701593518E0,-1.861467600E0,4.086576939E0,4.802144646E0
1.031993288E1,-1.824532509E0,-1.859333634E0,4.075469971E0,4.836889075E0
1.032997287E1,-1.871729851E0,-1.822406173E0,4.041417122E0,4.812233291E0
1.034001288E1,-1.852756143E0,-1.774994016E0,4.023859978E0,4.772290666E0
1.035005288E1,-1.829914093E0,-1.592609644E0,3.888813496E0,4.583433371E0
1.036009388E1,-1.568012953E0,-1.365463614E0,3.910219193E0,4.428653253E0
1.037013387E1,-1.436017394E0,-1.255420804E0,3.910550117E0,4.350934333E0
1.038017388E1,-1.332020640E0,-1.147073746E0,3.915071249E0,4.291601106E0
1.039018388E1,-1.302042484E0,-1.080246806E0,3.945298195E0,4.292741040E0
1.040022387E1,-1.748656988E0,-8.084598184E-1,3.992794752E0,4.433262734E0
1.041026487E1,-1.764081597E0,-5.799219608E-1,3.962228775E0,4.375791383E0
1.042030488E1,-1.893878818E0,-6.169511080E-1,4.009611607E0,4.477096255E0
1.043034487E1,-2.057911873E0,-4.947971106E-1,4.015175343E0,4.538882956E0
1.044038488E1,-2.106229305E0,-3.981877267E-1,4.046489716E0,4.579173983E0
1.045042588E1,-2.172250032E0,-1.965371519E-1,3.982552528E0,4.540707180E0
1.046046588E1,-2.224626303E0,-1.417015940E-1,4.018946648E0,4.595756052E0
1.047050587E1,-2.284284592E0,-1.750076413E-1,4.097764015E0,4.694704857E0
1.048054687E1,-2.318567991E0,-2.384241521E-1,4.101102352E0,4.717164838E0
1.049058688E1,-2.408951044E0,-1.727664620E-1,4.060652256E0,4.724594176E0
1.050062688E1,-2.466949463E0,-3.216433525E-2,4.005044937E0,4.703962069E0
1.051066688E1,-2.308685064E0,3.322575688E-1,4.031267166E0,4.657417394E0
1.052070787E1,-2.590164661E0,3.816597462E-1,4.311612129E0,5.044265684E0
1.053074788E1,-2.623337984E0,1.046407521E-1,4.009871960E0,4.792903608E0
1.054078787E1,-2.656553268E0,4.199853837E-1,3.956369162E0,4.783985779E0
1.055082887E1,-2.473545074E0,4.886079729E-1,4.268737793E0,4.957750027E0
1.056086888E1,-2.523410320E0,6.987527013E-1,4.324978352E0,5.055817711E0
1.057090888E1,-2.529175997E0,6.648296714E-1,4.127943993E0,4.886578693E0
1.058094888E1,-2.512030363E0,6.661769748E-1,4.039524078E0,4.803315843E0
1.059095888E1,-2.533601761E0,6.689545512E-1,4.079970360E0,4.848999506E0
1.060099888E1,-2.496735334E0,7.397206426E-1,4.114969254E0,4.869686429E0
1.061103988E1,-2.465273619E0,7.548764944E-1,4.168004513E0,4.900987059E0
1.062107987E1,-2.488126516E0,9.265249372E-1,4.201862335E0,4.970399290E0
1.063111988E1,-2.422964096E0,1.179547429E0,4.227743149E0,5.013571509E0
1.064116088E1,-2.095972300E0,1.003323436E0,4.521531582E0,5.083699995E0
1.065120087E1,-2.137062550E0,1.409459233E0,4.574454308E0,5.242064849E0
1.066124088E1,-2.053481817E0,1.654841542E0,4.599183083E0,5.301676445E0
1.067128088E1,-2.125380754E0,1.908898592E0,4.364799976E0,5.216571290E0
1.068132188E1,-1.985245705E0,1.452739358E0,4.155990124E0,4.829483001E0
1.069136187E1,-1.784991026E0,1.309218764E0,4.266813278E0,4.806864080E0
1.070140188E1,-1.717351556E0,1.489058018E0,4.360436440E0,4.917315944E0
1.071144288E1,-1.690398216E0,1.707900763E0,4.362374306E0,4.980429773E0
1.072148288E1,-1.769042969E0,1.965490222E0,4.369537354E0,5.107398704E0
1.073152288E1,-1.607675314E0,1.998844981E0,4.437935829E0,5.125941435E0
1.074156288E1,-1.361301422E0,1.954012632E0,4.742581367E0,5.306918593E0
1.075160388E1,-1.317519546E0,2.294874668E0,4.618311405E0,5.322697411E0
1.076164387E1,-1.135248065E0,2.133850813E0,4.341143608E0,4.968665343E0
1.077168388E1,-1.100353599E0,2.172871351E0,4.416257858E0,5.043360132E0
1.078172488E1,-1.126661897E0,2.363967180E0,4.413167477E0,5.131642528E0
1.079176488E1,-9.864309430E-1,2.330302954E0,4.417630196E0,5.091052387E0
1.080177487E1,-8.847426772E-1,2.361941576E0,4.404392242E0,5.075451570E0
1.081181488E1,-8.649194241E-1,2.506618500E0,4.411767006E0,5.147320665E0
1.082185488E1,-5.372986794E-1,2.313108683E0,4.766162872E0,5.324985462E0
1.083189488E1,-3.749623001E-1,2.611361742E0,4.710905552E0,5.399299769E0
1.084193587E1,-2.128916085E-1,2.595881224E0,4.374021530E0,5.090774647E0
1.085197588E1,-1.695292294E-1,2.545150757E0,4.351354599E0,5.043889311E0
1.086201587E1,-1.996764541E-1,2.718026161E0,4.349329948E0,5.132660899E0
1.087205687E1,-7.722795755E-2,2.596292019E0,4.359461308E0,5.074603363E0
1.088209688E1,-4.865874536E-3,2.573652744E0,4.362674713E0,5.065238669E0
1.089213688E1,6.733562052E-2,2.624224901E0,4.353821278E0,5.083979754E0
1.090217687E1,2.213163972E-1,2.614468098E0,4.315853119E0,5.050842754E0
1.091221787E1,3.154082894E-1,2.692018270E0,4.301543713E0,5.084262294E0
1.092225788E1,5.411503315E-1,2.599038601E0,4.293850899E0,5.048267116E0
1.093229787E1,6.092106104E-1,2.751908779E0,4.255629539E0,5.104363063E0
1.094233888E1,7.342313528E-1,2.611561298E0,4.245503426E0,5.038218676E0
1.095237888E1,7.660846114E-1,2.690754175E0,4.223013401E0,5.065657494E0
1.096241888E1,8.724631667E-1,2.613085508E0,4.209766865E0,5.031058031E0
1.097245887E1,9.616044760E-1,2.625077248E0,4.194324970E0,5.040642388E0
1.098249987E1,1.081484795E0,2.550835609E0,4.180788040E0,5.015511968E0
1.099253988E1,1.140442491E0,2.529206514E0,4.170685768E0,5.009202975E0
1.100254988E1,1.242893457E0,2.434884787E0,4.159449100E0,4.977395392E0
1.101258987E1,1.341928720E0,2.397354603E0,4.133821487E0,4.963523131E0
1.102262988E1,1.502285838E0,2.287930727E0,4.100690365E0,4.930228313E0
1.103267088E1,1.622865200E0,2.262109756E0,4.085671425E0,4.944041161E0
1.104271088E1,1.752535343E0,2.219616652E0,4.065917492E0,4.952753099E0
1.105275088E1,1.865013003E0,2.196711063E0,4.053782463E0,4.973626972E0
1.106279088E1,1.985495210E0,2.189866781E0,4.028918266E0,4.996988107E0
1.107283188E1,2.149998903E0,2.072856188E0,4.016831875E0,5.005413706E0
1.108287187E1,2.185476065E0,2.117911816E0,3.991825581E0,5.019614283E0
1.109291188E1,2.194787741E0,2.054903746E0,3.993186951E0,4.998526248E0
1.110295288E1,2.157808065E0,1.880082488E0,4.044607639E0,4.954765056E0
1.111299288E1,2.104213715E0,1.696152210E0,4.062466621E0,4.879373190E0
1.112303288E1,2.062495708E0,1.532633543E0,3.991595268E0,4.747176730E0
1.113307288E1,2.066634893E0,1.439955831E0,3.973423243E0,4.704523870E0
1.114311388E1,2.188551664E0,1.349587083E0,3.945042610E0,4.708981299E0
1.115315387E1,2.262945652E0,1.341351867E0,3.944658518E0,4.741358316E0
1.116319388E1,2.310752869E0,1.260216475E0,3.919837475E0,4.721530495E0
1.117323488E1,2.118475676E0,9.424077272E-1,3.929490328E0,4.562561315E0
1.118327488E1,2.085241318E0,7.849557996E-1,3.962521315E0,4.545983076E0
1.119331487E1,2.008039951E0,6.553363800E-1,4.156807899E0,4.662696873E0
1.120335488E1,2.064320564E0,3.455375731E-1,4.082131863E0,4.587441133E0
1.121336488E1,2.076801062E0,2.468355000E-1,3.930151939E0,4.451979861E0
1.122340487E1,2.246525764E0,5.095361173E-2,3.816665411E0,4.429041560E0
1.123344587E1,2.367036104E0,1.549798995E-3,3.788501263E0,4.467169589E0
1.124348588E1,2.472564220E0,-9.598554671E-2,3.807724953E0,4.541096384E0
1.125352587E1,2.496294975E0,-1.071320772E-1,3.794694424E0,4.543420700E0
1.126356688E1,2.523871899E0,-1.109979153E-1,3.789149284E0,4.554108277E0
1.127362688E1,2.535401583E0,-1.587233543E-1,3.723007917E0,4.507132375E0
1.128366688E1,2.508963346E0,-2.304023355E-1,3.547191620E0,4.350925269E0
1.129370688E1,2.527363777E0,-1.860877723E-1,3.426543713E0,4.261853838E0
1.130374788E1,2.524075747E0,-2.151348740E-1,3.436585188E0,4.269351138E0
1.131378787E1,2.456961393E0,-1.983791888E-1,3.452634096E0,4.242251265E0
1.132382788E1,2.402988434E0,-1.538926810E-1,3.491472244E0,4.241275139E0
1.133386888E1,2.369783878E0,-1.753408164E-1,3.524572611E0,4.250791940E0
1.134390888E1,2.245925426E0,-1.600731760E-1,3.723652363E0,4.351481513E0
1.135394887E1,2.154791355E0,-2.389414012E-1,3.820000410E0,4.392336726E0
1.136398888E1,2.231886148E0,-4.676851034E-1,3.812031269E0,4.442029664E0
1.137402988E1,2.315859795E0,-7.911915779E-1,3.793787241E0,4.514644209E0
1.138406987E1,2.315762758E0,-9.468200803E-1,3.806709766E0,4.555245840E0
1.139410988E1,2.279405594E0,-1.143420577E0,3.790589333E0,4.568552064E0
1.140415088E1,2.136822701E0,-1.095977187E0,3.793982983E0,4.490154131E0
1.141415987E1,2.119561672E0,-1.209183216E0,3.777470350E0,4.497104399E0
1.142420088E1,2.024693966E0,-1.199150801E0,3.761693239E0,4.437080608E0
1.143424088E1,1.979468226E0,-1.272359371E0,3.743862152E0,4.421956201E0
1.144428088E1,1.888142824E0,-1.299859166E0,3.718528509E0,4.368314486E0
1.145432087E1,1.836968660E0,-1.382432461E0,3.693455219E0,4.350538452E0
1.146436187E1,1.815083027E0,-1.450714827E0,3.692150593E0,4.362462138E0
1.147440188E1,1.765227795E0,-1.614511371E0,3.728013992E0,4.429533210E0
1.148444187E1,1.570038080E0,-1.542222261E0,3.751667023E0,4.349537277E0
1.149448288E1,1.507898927E0,-1.603971958E0,3.723763466E0,4.325840908E0
1.150452288E1,1.489704728E0,-1.705784082E0,3.736273527E0,4.369057036E0
1.151456288E1,1.459410310E0,-1.728820920E0,3.711654425E0,4.346846995E0
1.152460287E1,1.394382834E0,-1.708595037E0,3.721112251E0,4.325537756E0
1.153464387E1,1.343717933E0,-1.711848736E0,3.724669456E0,4.313834320E0
1.154468388E1,1.294938684E0,-1.743257999E0,3.713873625E0,4.302170609E0
1.155472388E1,1.232111812E0,-1.761027098E0,3.738342762E0,4.312136658E0
1.156476488E1,1.146512151E0,-1.832466722E0,3.727537394E0,4.308939477E0
1.157480487E1,1.004877210E0,-1.827843547E0,3.728314638E0,4.272132989E0
1.158484488E1,8.668561578E-1,-1.819752097E0,3.727771282E0,4.237831524E0
1.159488487E1,7.467779517E-1,-1.848011374E0,3.712698936E0,4.213900419E0
1.160492587E1,6.237835884E-1,-1.859965324E0,3.699365377E0,4.187347749E0
1.161496588E1,4.655456245E-1,-1.789130211E0,3.706842661E0,4.142270169E0
1.162497588E1,3.813883960E-1,-1.759422064E0,3.701956034E0,4.116491417E0
1.163501587E1,3.622862399E-1,-1.765645027E0,3.703139782E0,4.118494619E0
1.164505588E1,3.651352823E-1,-1.763448954E0,3.715657234E0,4.129065835E0
1.165509688E1,3.425300717E-1,-1.787972927E0,3.710692883E0,4.133208887E0
1.166513688E1,2.485788167E-1,-1.773113132E0,3.724113703E0,4.132159784E0
1.167517687E1,1.547800303E-1,-1.800081968E0,3.721352577E0,4.136751981E0
1.168521688E1,3.865129501E-2,-1.862610579E0,3.732540846E0,4.171651143E0
1.169525788E1,-8.134718239E-2,-1.962819576E0,3.728224277E0,4.214135061E0
1.170529787E1,-2.035772204E-1,-2.007924080E0,3.716080666E0,4.228765577E0
1.171533788E1,-2.364532501E-1,-2.040082932E0,3.645105124E0,4.183854666E0
1.172537888E1,-2.861209214E-1,-1.996373773E0,3.535674095E0,4.070425620E0
1.173541888E1,-3.549559414E-1,-2.021815062E0,3.410032749E0,3.980207685E0
1.174545887E1,-4.063310027E-1,-2.154228687E0,3.319793940E0,3.978295857E0
1.175549888E1,-4.533443451E-1,-2.265113592E0,3.325856686E0,4.049392964E0
1.176553988E1,-4.900871813E-1,-2.273852348E0,3.368622303E0,4.093678806E0
1.177557988E1,-5.320075750E-1,-2.224577427E0,3.373441935E0,4.075768305E0
1.178561988E1,-6.084706783E-1,-2.237010956E0,3.435094118E0,4.144191861E0
1.179566087E1,-6.705952883E-1,-2.277177811E0,3.528839350E0,4.252992356E0
1.180570088E1,-7.277717590E-1,-2.212154865E0,3.590923548E0,4.279954767E0
1.181574087E1,-7.856026888E-1,-2.007385969E0,3.649783850E0,4.238831462E0
1.182578088E1,-8.654170632E-1,-1.973156214E0,3.737849236E0,4.314372381E0
1.183579088E1,-9.849158525E-1,-2.002007246E0,3.720535040E0,4.338256935E0
1.184583087E1,-1.088581204E0,-1.978500962E0,3.736933470E0,4.366250892E0
1.185587187E1,-1.194004059E0,-1.906563163E0,3.753877878E0,4.376325846E0
1.186591188E1,-1.273189902E0,-1.904428363E0,3.754972219E0,4.398599355E0
1.187595188E1,-1.377716422E0,-1.865147471E0,3.785660744E0,4.439381139E0
1.188599288E1,-1.461667776E0,-1.863605261E0,3.791354895E0,4.470332112E0
1.189603287E1,-1.533679485E0,-1.808304548E0,3.814725399E0,4.491577448E0
1.190607288E1,-1.620299339E0,-1.748712540E0,3.847079039E0,4.525857115E0
1.191611287E1,-1.697787285E0,-1.759855032E0,3.858076811E0,4.567748688E0
1.192615387E1,-1.805238724E0,-1.647662163E0,3.868412971E0,4.575838324E0
1.193619388E1,-1.811320305E0,-1.551064849E0,3.870587826E0,4.546221896E0
1.194623388E1,-1.853085518E0,-1.470301032E0,3.887041092E0,4.550252687E0
1.195627488E1,-1.923029900E0,-1.375640512E0,3.940449238E0,4.595385839E0
1.196631487E1,-1.978431821E0,-1.276515603E0,3.923763752E0,4.575981483E0
1.197635488E1,-2.012697220E0,-1.208630800E0,3.910284281E0,4.560927720E0
1.198639487E1,-2.038655758E0,-1.155283451E0,3.941447735E0,4.585390648E0
1.199643588E1,-2.061177969E0,-1.068903446E0,3.934942722E0,4.568893020E0
1.200647588E1,-2.089923859E0,-9.730843306E-1,3.943476677E0,4.567897016E0
1.201651588E1,-2.154904366E0,-8.428872228E-1,3.994923592E0,4.616653138E0
1.202655688E1,-2.191998482E0,-7.623068690E-1,3.976837873E0,4.604477015E0
1.203656588E1,-2.160532951E0,-5.505493283E-1,4.073246479E0,4.643527116E0
1.204660687E1,-2.092159748E0,-2.500646114E-1,4.192147255E0,4.691882706E0
1.205664688E1,-2.166736364E0,-3.404770494E-1,4.146332741E0,4.690708506E0
1.206668687E1,-2.197184563E0,-4.022575915E-1,3.980283737E0,4.564218422E0
1.207672688E1,-2.219462633E0,-2.550800145E-1,3.877346277E0,4.474918362E0
1.208676788E1,-2.138397217E0,-2.114457190E-1,3.805693150E0,4.370440744E0
1.209680788E1,-2.131431818E0,-1.063498110E-1,3.860125542E0,4.410768762E0
1.210684788E1,-2.319723368E0,1.620008051E-2,3.866901636E0,4.509357738E0
1.211688887E1,-2.357441425E0,1.272920705E-2,3.873183012E0,4.534229676E0
1.212692888E1,-2.388477325E0,2.683119774E-1,4.006681442E0,4.672291882E0
1.213696887E1,-2.409479618E0,3.197948039E-1,4.109321117E0,4.774346112E0
1.214700888E1,-2.323838949E0,5.648290515E-1,4.192242622E0,4.826402130E0
1.215704988E1,-2.361090660E0,5.887898207E-1,4.100616932E0,4.768278702E0
1.216708988E1,-2.377663612E0,5.446010828E-1,4.084136486E0,4.757104732E0
1.217712987E1,-2.406860352E0,7.201545238E-1,4.104784012E0,4.812572189E0
1.218717087E1,-2.364080667E0,7.446087599E-1,4.125264645E0,4.812600960E0
1.219721088E1,-2.301968098E0,7.263702750E-1,4.162081718E0,4.811402616E0
1.220725087E1,-2.298334837E0,8.557224274E-1,4.189652920E0,4.854667392E0
1.221729088E1,-2.306707382E0,9.444940686E-1,4.229055405E0,4.908958913E0
1.222733188E1,-2.236130238E0,1.101506829E0,4.287910461E0,4.959815708E0
1.223737188E1,-2.244493008E0,1.198457122E0,4.435326576E0,5.113332590E0
1.224738188E1,-2.207867146E0,1.448579907E0,4.441107273E0,5.166865093E0
1.225742188E1,-2.122471094E0,1.494568586E0,4.423312187E0,5.128772710E0
1.226746188E1,-2.110713243E0,1.512062669E0,4.341118813E0,5.058335344E0
1.227749062E1,-2.044611216E0,1.360454440E0,4.321312428E0,4.970413705E0
1.228753063E1,-1.868745565E0,1.499891400E0,4.334058762E0,4.952368075E0
1.229757062E1,-1.840247512E0,1.502431631E0,4.394202709E0,4.995280689E0
1.230761063E1,-1.751856327E0,1.682855964E0,4.421587467E0,5.044942073E0
1.231765163E1,-1.814741611E0,1.987751126E0,4.482217312E0,5.228261058E0
1.232769163E1,-1.511672020E0,1.895532846E0,4.749962807E0,5.332948878E0
1.233773162E1,-1.507347107E0,2.361744881E0,4.879781723E0,5.626917793E0
1.234777262E1,-1.309783459E0,2.230659246E0,4.779320240E0,5.434452626E0
1.235781263E1,-1.260548830E0,2.275703430E0,4.450683594E0,5.155229763E0
1.236785263E1,-1.197587371E0,2.345962286E0,4.637502193E0,5.333308650E0
1.237789263E1,-1.126923561E0,2.532536983E0,4.638573170E0,5.403708110E0
1.238793362E1,-9.256789684E-1,2.534542561E0,4.664820194E0,5.389001298E0
1.239797363E1,-1.012641907E0,2.859946966E0,4.588563442E0,5.500877634E0
1.240801362E1,-7.046946883E-1,2.644743204E0,5.036445618E0,5.732106566E0
1.241805462E1,-7.711647153E-1,3.193988562E0,5.024688721E0,6.003645117E0
1.242809463E1,-4.429444969E-1,2.826817989E0,5.012405872E0,5.771595308E0
1.243813463E1,-4.385095835E-1,2.976879835E0,4.712230206E0,5.590994341E0
1.244814462E1,-2.469592988E-1,2.736345530E0,4.843298912E0,5.568313937E0
1.245818463E1,2.959273197E-2,2.672536612E0,5.154185772E0,5.805941667E0
1.246822463E1,2.003761977E-1,2.931087732E0,5.151411533E0,5.930300726E0
1.247826563E1,4.272961915E-1,2.688637495E0,5.029643536E0,5.719149212E0
1.248830562E1,3.036208749E-1,3.045226812E0,4.937900066E0,5.809341532E0
1.249834563E1,4.877000153E-1,2.668199301E0,5.017729282E0,5.703923734E0
1.250838663E1,4.699340463E-1,2.787300110E0,4.953133583E0,5.702930142E0
1.251842662E1,6.049678326E-1,2.557055712E0,4.888733864E0,5.550156645E0
1.252846663E1,8.931151628E-1,2.134277821E0,4.972129822E0,5.484056115E0
1.253850663E1,9.265251160E-1,2.445075989E0,5.073355198E0,5.707519456E0
1.254854763E1,1.475796223E0,2.210575581E0,4.936582565E0,5.606644836E0
1.255858762E1,1.626997113E0,2.330887079E0,4.473940372E0,5.300593989E0
1.256862763E1,1.761472821E0,2.230510950E0,4.476444721E0,5.302501574E0
1.257866863E1,1.745177984E0,2.284460306E0,4.289335251E0,5.163603585E0
1.258870863E1,1.793701649E0,2.182297230E0,4.273031235E0,5.122361051E0
1.259874863E1,1.737856627E0,2.169436216E0,4.298278809E0,5.118769370E0
1.260878863E1,1.686005592E0,2.066852093E0,4.310081005E0,5.068657682E0
1.261882963E1,1.600606322E0,1.918404222E0,4.356468678E0,5.022054828E0
1.262886962E1,1.510423660E0,1.861352324E0,4.382478714E0,4.995210885E0
1.263890963E1,1.493414879E0,1.688343644E0,4.395507336E0,4.939764873E0
1.264895063E1,1.481893063E0,1.686835051E0,4.402183056E0,4.941723909E0
1.265895962E1,1.571891785E0,1.603535891E0,4.389742374E0,4.930720966E0
1.266900062E1,1.709180474E0,1.493733525E0,4.371091366E0,4.925340340E0
1.267904063E1,1.830572367E0,1.480545402E0,4.338008881E0,4.935719899E0
1.268908063E1,1.979303002E0,1.342019677E0,4.384625435E0,4.994356554E0
1.269912063E1,2.045318365E0,1.411385775E0,4.251759529E0,4.924712795E0
1.270916162E1,2.255314589E0,1.194535971E0,4.261391163E0,4.967173716E0
1.271920163E1,2.337074757E0,1.317572951E0,4.209184647E0,4.991508018E0
1.272924162E1,2.516062021E0,1.199023128E0,4.170197010E0,5.015851638E0
1.273928262E1,2.596001863E0,1.273742080E0,4.134491920E0,5.045361038E0
1.274932263E1,2.573689938E0,1.096223474E0,4.419504166E0,5.230449586E0
1.275936263E1,2.472044945E0,1.028906584E0,4.448630810E0,5.192299206E0
1.276940262E1,2.388545513E0,9.310204387E-1,4.458012581E0,5.142550427E0
1.277944362E1,2.316637516E0,7.373138666E-1,4.391889095E0,5.019873598E0
1.278948363E1,2.141864538E0,5.320182443E-1,4.571036816E0,5.075924022E0
1.279952362E1,2.106504679E0,3.043378592E-1,4.555956364E0,5.028590447E0
1.280956463E1,2.105341673E0,1.379435658E-1,4.521164894E0,4.989230801E0
1.281960463E1,2.135947227E0,1.294384152E-1,4.468513012E0,4.954455914E0
1.282964463E1,2.106675625E0,2.642707899E-2,4.298274040E0,4.786850771E0
1.283968462E1,2.029355049E0,-9.203342721E-3,4.338319778E0,4.789507816E0
1.284972562E1,2.026336193E0,-1.691274941E-1,4.226803303E0,4.690469980E0
1.285973463E1,2.003406286E0,-8.843570948E-2,4.157452106E0,4.615827731E0
1.286977563E1,2.074113846E0,-2.183590829E-1,4.057918072E0,4.562491426E0
1.287981562E1,1.882229209E0,-3.247827590E-1,4.180081367E0,4.595797088E0
1.288985563E1,1.848143935E0,-3.382061720E-1,4.100397587E0,4.510352513E0
1.289989663E1,1.862470746E0,-4.851677716E-1,4.082911968E0,4.513796095E0
1.290993663E1,1.868696928E0,-6.735200882E-1,4.045761108E0,4.507087803E0
1.291997663E1,1.822540045E0,-7.743882537E-1,3.978576422E0,4.444142181E0
1.293001663E1,1.774759650E0,-8.736661077E-1,3.845205069E0,4.324195452E0
1.294005763E1,1.691711307E0,-7.903173566E-1,3.806104183E0,4.239447809E0
1.295009762E1,1.629608512E0,-7.626369596E-1,3.763330698E0,4.171318374E0
1.296013763E1,1.540505886E0,-7.891948819E-1,3.658875227E0,4.047635714E0
1.297017863E1,1.492715240E0,-7.125778794E-1,3.615134001E0,3.975570382E0
1.298021863E1,1.321468353E0,-8.036919236E-1,3.728565454E0,4.036632218E0
1.299025862E1,1.269186974E0,-7.930539846E-1,3.650711536E0,3.945562687E0
1.300029863E1,1.259477019E0,-9.619549513E-1,3.638817072E0,3.968958223E0
1.301033963E1,1.192218900E0,-9.633160830E-1,3.658670187E0,3.966765851E0
1.302037962E1,1.156012774E0,-1.111642361E0,3.671995878E0,4.006952458E0
1.303041963E1,9.389855862E-1,-1.184131742E0,3.687167406E0,3.984854501E0
1.304046063E1,9.388973117E-1,-1.425894618E0,3.619360685E0,4.001809015E0
1.305050063E1,8.566056490E-1,-1.438906550E0,3.668512106E0,4.032642604E0
1.306054062E1,8.494049907E-1,-1.582510591E0,3.684097290E0,4.098585299E0
1.307055063E1,8.510481715E-1,-1.659747958E0,3.685194731E0,4.130339753E0
1.308059063E1,8.489211798E-1,-1.713828444E0,3.690603495E0,4.156733003E0
1.309063062E1,8.487392664E-1,-1.825342655E0,3.597707748E0,4.122588409E0
1.310067162E1,9.098261595E-1,-1.840795875E0,3.624241114E0,4.165505581E0
1.311071163E1,8.217231631E-1,-1.815644979E0,3.744538546E0,4.241858622E0
1.312075162E1,7.488756776E-1,-1.778062224E0,3.847974539E0,4.304558991E0
1.313079263E1,6.784678102E-1,-1.761893868E0,3.793409348E0,4.237280148E0
1.314083263E1,5.400684476E-1,-1.709160805E0,3.866014719E0,4.261334813E0
1.315087263E1,4.270825088E-1,-1.817046523E0,3.926894665E0,4.347937355E0
1.316091262E1,2.870009840E-1,-2.065648317E0,3.963548183E0,4.478726017E0
1.317095362E1,2.425227463E-1,-2.267802477E0,3.870544434E0,4.492533758E0
1.318099363E1,3.397841454E-1,-2.450432777E0,3.745346069E0,4.488617966E0
1.319103363E1,3.100888431E-1,-2.534999847E0,3.734967947E0,4.524639752E0
1.320107463E1,2.875192761E-1,-2.532590389E0,3.790126324E0,4.567465267E0
1.321111462E1,2.789167166E-1,-2.377337456E0,3.868807554E0,4.549417524E0
1.322115463E1,1.212087199E-1,-2.296521187E0,3.950686216E0,4.571282391E0
1.323119462E1,-9.128543735E-2,-2.385323286E0,4.012923241E0,4.669224041E0
1.324123562E1,-2.088638991E-1,-2.447590351E0,4.039687157E0,4.727937709E0
1.325127563E1,-3.662056029E-1,-2.382736444E0,4.130933285E0,4.782901767E0
1.326131563E1,-4.662904143E-1,-2.250792265E0,4.211951733E0,4.798336167E0
1.327132562E1,-5.506185889E-1,-2.196987152E0,4.133440018E0,4.713306669E0
1.328137179E1,-6.490551233E-1,-2.257702351E0,4.165679932E0,4.782403345E0
1.329141279E1,-7.704300284E-1,-2.351473570E0,4.175086975E0,4.853281532E0
1.330145279E1,-8.177903891E-1,-2.476476192E0,4.201014996E0,4.944718642E0
1.331149279E1,-8.619450331E-1,-2.496725321E0,4.225360394E0,4.982996791E0
1.332153279E1,-8.796513677E-1,-2.499437094E0,4.264592648E0,5.020729306E0
1.333157379E1,-9.016986489E-1,-2.357478380E0,4.316834927E0,5.000582821E0
1.334161379E1,-9.086868763E-1,-2.108526468E0,4.439975739E0,4.998497801E0
1.335165379E1,-1.212338328E0,-1.944906592E0,4.768820286E0,5.290942524E0
1.336169479E1,-1.369434953E0,-1.757167578E0,4.666906357E0,5.171363933E0
1.337173479E1,-1.510085225E0,-1.731196642E0,4.473737717E0,5.029088223E0
1.338177479E1,-1.592351198E0,-1.784426928E0,4.461501598E0,5.062090310E0
1.339181479E1,-1.657649279E0,-1.838570118E0,4.464351177E0,5.104759803E0
1.340185579E1,-1.651495814E0,-1.840519309E0,4.488547802E0,5.124647414E0
1.341189579E1,-1.633653879E0,-1.772407889E0,4.517085075E0,5.119991436E0
1.342193579E1,-1.613111854E0,-1.634909987E0,4.555945873E0,5.102127333E0
1.343197679E1,-1.615303397E0,-1.440446734E0,4.627510548E0,5.108614854E0
1.344201679E1,-1.927948475E0,-1.406608462E0,4.981723785E0,5.523866812E0
1.345205679E1,-2.000072718E0,-1.143402338E0,4.805479050E0,5.329192123E0
1.346209679E1,-2.293714762E0,-1.185780406E0,4.469695091E0,5.161916000E0
1.347213779E1,-2.223579884E0,-1.176774144E0,4.524866104E0,5.177211426E0
1.348214679E1,-2.075838327E0,-1.167824864E0,4.539213181E0,5.126146308E0
1.349218779E1,-2.270730257E0,-1.144443631E0,4.546556473E0,5.209332288E0
1.350222779E1,-2.204740286E0,-1.037346840E0,4.578939438E0,5.186873294E0
1.351226779E1,-2.324380875E0,-7.191781402E-1,4.603858948E0,5.207252717E0
1.352230879E1,-2.177936316E0,-3.821936846E-1,4.824131012E0,5.306761595E0
1.353234879E1,-2.272993088E0,-4.123891294E-1,4.763590813E0,5.294181693E0
1.354238879E1,-2.376980305E0,-1.947075576E-1,4.806748867E0,5.365890520E0
1.355242879E1,-2.387017727E0,-2.273270190E-1,4.605019569E0,5.191891412E0
1.356246979E1,-2.341067076E0,-1.940074414E-1,4.507129192E0,5.082563083E0
1.357250979E1,-2.398506165E0,-8.069393039E-2,4.478678226E0,5.081131959E0
1.358254979E1,-2.474128008E0,1.104931347E-2,4.402807713E0,5.050361100E0
1.359259079E1,-2.480264187E0,6.872219592E-2,4.496782303E0,5.135901504E0
1.360263079E1,-2.499387264E0,2.712624073E-1,4.513679504E0,5.166606494E0
1.361267079E1,-2.330456495E0,3.309774101E-1,4.606545925E0,5.173087945E0
1.362271079E1,-2.321586132E0,7.108241916E-1,4.614088058E0,5.213908497E0
1.363275179E1,-2.319206238E0,6.600033641E-1,4.510288239E0,5.114393611E0
1.364279179E1,-2.386837721E0,7.577437758E-1,4.457358360E0,5.112652295E0
1.365283179E1,-2.438497066E0,7.640304565E-1,4.474893093E0,5.153123196E0
1.366287279E1,-2.428294420E0,8.955893517E-1,4.477021217E0,5.171306707E0
1.367291279E1,-2.415100336E0,1.024870872E0,4.494079590E0,5.203827562E0
1.368295279E1,-2.382951736E0,1.185605049E0,4.488435268E0,5.218253488E0
1.369296279E1,-2.377768517E0,1.243520021E0,4.490806580E0,5.231392635E0
1.370300279E1,-2.300396681E0,1.312036991E0,4.493316650E0,5.215664912E0
1.371304279E1,-2.216202021E0,1.333367586E0,4.477993011E0,5.171251486E0
1.372308379E1,-2.103065968E0,1.378693581E0,4.478051662E0,5.135818255E0
1.373312379E1,-1.995503545E0,1.459747672E0,4.518022537E0,5.150284003E0
1.374316379E1,-1.912296176E0,1.522207975E0,4.530797958E0,5.148021360E0
1.375320479E1,-1.827157378E0,1.752436399E0,4.596138477E0,5.247287520E0
1.376324479E1,-1.768266559E0,1.913270831E0,4.586668015E0,5.274930840E0
1.377328479E1,-1.707482815E0,1.966902733E0,4.619090557E0,5.302848432E0
1.378332479E1,-1.589793324E0,2.103675127E0,4.698908329E0,5.388193699E0
1.379336579E1,-1.448387265E0,2.144996166E0,4.896495342E0,5.538456541E0
1.380340579E1,-1.325251937E0,2.218303680E0,4.902039051E0,5.541403322E0
1.381344579E1,-1.248955488E0,2.341342926E0,4.727247715E0,5.421129722E0
1.382348679E1,-1.185676694E0,2.289726734E0,4.723989964E0,5.381891760E0
1.383352679E1,-1.183222055E0,2.478860617E0,4.744518280E0,5.482263957E0
1.384356679E1,-9.543203712E-1,2.237662315E0,4.784947395E0,5.367828386E0
1.385360679E1,-8.637968898E-1,2.672792435E0,4.807529449E0,5.567971253E0
1.386364779E1,-5.664672852E-1,2.518629551E0,5.237804890E0,5.839433197E0
1.387368779E1,-4.341880679E-1,2.552998781E0,5.175631523E0,5.787355503E0
1.388372779E1,-2.015944421E-1,2.432319641E0,5.102288723E0,5.655985269E0
1.389373779E1,-9.222597815E-3,2.248674870E0,4.810785770E0,5.310393908E0
1.390377779E1,6.465127319E-2,2.540864468E0,4.788527966E0,5.421270341E0
1.391381879E1,2.629768848E-1,2.547683954E0,4.770927429E0,5.414942189E0
1.392385879E1,2.749400139E-1,2.808106661E0,4.761760235E0,5.534926880E0
1.393389879E1,4.246453345E-1,2.682502031E0,4.788645267E0,5.505203385E0
1.394393879E1,4.528013766E-1,2.825924397E0,4.812419415E0,5.599130147E0
1.395397979E1,6.252452731E-1,2.600259066E0,4.840991974E0,5.530595099E0
1.396401979E1,6.327042580E-1,2.758850098E0,4.873799801E0,5.636088452E0
1.397405979E1,7.902757525E-1,2.655047417E0,4.876280308E0,5.608201333E0
1.398410079E1,8.646312356E-1,2.840699196E0,4.860083103E0,5.695398745E0
1.399414079E1,1.037091494E0,2.780392170E0,4.866010666E0,5.699491134E0
1.400418079E1,1.167029500E0,2.833697796E0,4.863693714E0,5.748679639E0
1.401422079E1,1.298127890E0,2.773014545E0,4.844249249E0,5.730750079E0
1.402426179E1,1.388544679E0,2.753024101E0,4.840751648E0,5.739344435E0
1.403430179E1,1.496692657E0,2.560715914E0,4.831279278E0,5.669092905E0
1.404434179E1,1.559626818E0,2.407570601E0,4.815517426E0,5.605179755E0
1.405438279E1,1.647115707E0,2.209663391E0,4.825575352E0,5.557137746E0
1.406442279E1,1.699330211E0,2.144967556E0,4.825365543E0,5.547320219E0
1.407446279E1,1.836993217E0,1.957130790E0,4.807098389E0,5.505733369E0
1.408450279E1,1.995513916E0,1.877755165E0,4.776029587E0,5.506223648E0
1.409454379E1,2.097531080E0,1.929353833E0,4.739982128E0,5.530775119E0
1.410455279E1,2.193774700E0,1.895616889E0,4.710785389E0,5.531501587E0
1.411459379E1,2.274271488E0,1.853133917E0,4.683497906E0,5.526442685E0
1.412463379E1,2.350820303E0,1.824262023E0,4.647408485E0,5.518395931E0
1.413467379E1,2.413702726E0,1.749373198E0,4.638102055E0,5.513461536E0
1.414471479E1,2.473415136E0,1.630127072E0,4.623411655E0,5.490995542E0
1.415475479E1,2.477532864E0,1.544301152E0,4.596804619E0,5.445516306E0
1.416479479E1,2.469081163E0,1.331754804E0,4.580631256E0,5.371416513E0
1.417483479E1,2.411226034E0,1.200656176E0,4.572368622E0,5.306801396E0
1.418487579E1,2.258405685E0,9.728815556E-1,4.856658459E0,5.443714370E0
1.419491579E1,2.251814842E0,8.225378990E-1,4.807843685E0,5.372392352E0
1.420495579E1,2.307676554E0,6.523350477E-1,4.770683289E0,5.339506637E0
1.421499679E1,2.375917435E0,5.076436400E-1,4.647184849E0,5.243950109E0
1.422503679E1,2.411347389E0,4.206100702E-1,4.439666271E0,5.069728362E0
1.423507679E1,2.487964392E0,3.596702814E-1,4.379450798E0,5.049645415E0
1.424511679E1,2.549009323E0,2.979635000E-1,4.361426830E0,5.060461913E0
1.425515779E1,2.551268101E0,1.798206121E-1,4.312549591E0,5.013919460E0
1.426519779E1,2.370667696E0,5.532330275E-2,4.325214386E0,4.932606357E0
1.427525538E1,2.137221336E0,-3.164035827E-2,4.514589787E0,4.995021231E0
1.428529638E1,2.169068813E0,-2.429591119E-1,4.507042408E0,5.007726022E0
1.429533637E1,2.168134928E0,-4.741928577E-1,4.448243141E0,4.971170383E0
1.430534637E1,2.047405958E0,-4.708490372E-1,4.247631073E0,4.738769852E0
1.431538638E1,2.062662125E0,-5.214887857E-1,4.251318932E0,4.753970788E0
1.432542637E1,2.063323975E0,-5.399701595E-1,4.216055393E0,4.724827687E0
1.433546638E1,2.012909651E0,-6.383670568E-1,4.212821007E0,4.712449320E0
1.434550738E1,1.905461788E0,-7.300148010E-1,4.210159302E0,4.678583929E0
1.435554738E1,1.687477708E0,-8.100540042E-1,4.220610619E0,4.617068604E0
1.436558737E1,1.650607705E0,-9.391704202E-1,4.147908211E0,4.561983056E0
1.437562837E1,1.674164772E0,-1.201916814E0,4.124142170E0,4.610420843E0
1.438566838E1,1.629879355E0,-1.179121256E0,4.091460228E0,4.559263147E0
1.439570837E1,1.654156685E0,-1.285259366E0,4.089027405E0,4.594373852E0
1.440574838E1,1.649560452E0,-1.279461622E0,4.085912228E0,4.588327632E0
1.441578938E1,1.657523870E0,-1.320292830E0,4.098345280E0,4.613782892E0
1.442582938E1,1.632725716E0,-1.418636084E0,4.092049122E0,4.628518944E0
1.443586937E1,1.596472144E0,-1.421028852E0,4.111612797E0,4.633940666E0
1.444591037E1,1.589952707E0,-1.515962720E0,4.110260963E0,4.660508316E0
1.445595038E1,1.569442153E0,-1.575426102E0,4.113620758E0,4.676215544E0
1.446599037E1,1.611186028E0,-1.771042585E0,4.111995697E0,4.758258176E0
1.447603038E1,1.514374971E0,-1.825330615E0,4.110486984E0,4.745657663E0
1.448607138E1,1.419606566E0,-1.827944756E0,4.133699417E0,4.737524217E0
1.449611138E1,1.295045137E0,-1.860882163E0,4.153315067E0,4.731812589E0
1.450615137E1,1.252575517E0,-2.014177799E0,4.163958073E0,4.792118995E0
1.451616138E1,1.275870204E0,-2.150605202E0,4.175662041E0,4.867145055E0
1.452620138E1,1.152714252E0,-2.216195822E0,4.192132473E0,4.879984502E0
1.453624238E1,1.016622424E0,-2.220841646E0,4.233812809E0,4.887824636E0
1.454628237E1,9.121347070E-1,-2.179938078E0,4.249480724E0,4.862325182E0
1.455632238E1,7.029186487E-1,-2.157271862E0,4.305821419E0,4.867033450E0
1.456636238E1,5.993602276E-1,-2.148176908E0,4.434594631E0,4.963821739E0
1.457640338E1,4.558509588E-1,-2.260074854E0,4.524671078E0,5.078226738E0
1.458644337E1,4.287901223E-1,-2.386291027E0,4.428545952E0,5.048788477E0
1.459648338E1,4.356240630E-1,-2.428876638E0,4.315051079E0,4.970802336E0
1.460652438E1,2.708054483E-1,-2.385387897E0,4.347479343E0,4.966285096E0
1.461656437E1,2.538715005E-1,-2.310388088E0,4.399316311E0,4.975573119E0
1.462660438E1,8.054774255E-2,-2.225502968E0,4.433505058E0,4.961382721E0
1.463664438E1,-1.053550169E-1,-2.312934399E0,4.459015846E0,5.024299705E0
1.464668538E1,-2.369463295E-1,-2.273618937E0,4.778840065E0,5.297433246E0
1.465672537E1,-3.759388328E-1,-2.307326078E0,4.781642914E0,5.322517505E0
1.466676538E1,-5.084118843E-1,-2.325078011E0,4.770880699E0,5.331582602E0
1.467680638E1,-5.709825754E-1,-2.315029860E0,4.747014999E0,5.312206298E0
1.468684637E1,-6.185750365E-1,-2.181962013E0,4.584836483E0,5.115106927E0
1.469688638E1,-6.346280575E-1,-2.125818491E0,4.593830585E0,5.101483752E0
1.470692638E1,-7.497283816E-1,-2.084153414E0,4.614816189E0,5.118819840E0
1.471693637E1,-8.637406826E-1,-2.068755627E0,4.588146687E0,5.106553420E0
1.472697638E1,-1.081034184E0,-2.032665014E0,4.898345947E0,5.412407504E0
1.473701738E1,-1.223772764E0,-1.986940145E0,4.821204662E0,5.356264119E0
1.474705738E1,-1.333208799E0,-1.846130967E0,4.927341938E0,5.428106836E0
1.475709737E1,-1.410189390E0,-1.777933836E0,4.874898911E0,5.377203942E0
1.476713837E1,-1.490025520E0,-1.759350419E0,4.741174221E0,5.272022661E0
1.477717838E1,-1.584270000E0,-1.778933644E0,4.649569988E0,5.224271951E0
1.478721838E1,-1.673864245E0,-1.827332139E0,4.654800415E0,5.273341556E0
1.479725838E1,-1.784687400E0,-1.844508767E0,4.669215202E0,5.328122776E0
1.480729937E1,-1.914256930E0,-1.806334734E0,4.648556709E0,5.341938248E0
1.481733938E1,-1.947459102E0,-1.589179039E0,4.788448334E0,5.408079550E0
1.482737937E1,-1.877492666E0,-1.387445688E0,5.067165852E0,5.579081826E0
1.483742037E1,-1.954054832E0,-1.118267298E0,4.953178406E0,5.440848128E0
1.484746038E1,-2.104999065E0,-1.073155046E0,4.788498402E0,5.339700344E0
1.485750038E1,-2.214893341E0,-1.076360941E0,4.692738533E0,5.299632094E0
1.486754038E1,-2.286457777E0,-1.112812638E0,4.691800117E0,5.336593434E0
1.487758137E1,-2.417580366E0,-9.683303237E-1,4.685108185E0,5.360279577E0
1.488762138E1,-2.440342188E0,-9.085025191E-1,4.680025101E0,5.355677526E0
1.489766137E1,-2.193660498E0,-2.840418518E-1,4.871073723E0,5.349783675E0
1.490770237E1,-2.205761909E0,-5.068109632E-1,4.931416512E0,5.425966436E0
1.491774238E1,-2.271586418E0,-7.167519629E-2,4.954116344E0,5.450551435E0
1.492775238E1,-2.244353533E0,-2.280306518E-1,4.813385963E0,5.315807106E0
1.493779237E1,-2.309575319E0,-1.149672046E-1,4.554807186E0,5.108191864E0
1.494783238E1,-2.310075283E0,-1.361291558E-1,4.396574497E0,4.968384674E0
1.495787238E1,-2.326591730E0,-1.846114695E-1,4.335325241E0,4.923632340E0
1.496791338E1,-2.403532505E0,-3.162987530E-2,4.382757187E0,4.998652770E0
1.497795337E1,-2.594521761E0,3.037582338E-1,4.545094490E0,5.242298747E0
1.498799338E1,-2.454816103E0,2.413641363E-1,4.844728470E0,5.436522114E0
1.499803438E1,-2.451879978E0,6.073448062E-1,4.861139297E0,5.478253226E0
1.500807438E1,-2.356521606E0,6.353604198E-1,4.829895973E0,5.411540636E0
1.501811438E1,-2.270313501E0,7.655687928E-1,4.577503681E0,5.166619680E0
1.502815438E1,-2.249428749E0,8.947383761E-1,4.521722794E0,5.128982695E0
1.503819538E1,-2.306373835E0,8.860676289E-1,4.544054031E0,5.172320867E0
1.504823537E1,-2.280730247E0,8.957453966E-1,4.499804974E0,5.123703258E0
1.505827538E1,-2.161766291E0,8.848226666E-1,4.603604317E0,5.162297681E0
1.506831638E1,-2.197486639E0,1.055953503E0,4.627318382E0,5.230302165E0
1.507835638E1,-2.117535353E0,1.095281482E0,4.786367893E0,5.347234342E0
1.508839638E1,-1.960915804E0,1.424238563E0,4.788411140E0,5.366798629E0
1.509843638E1,-2.025883675E0,1.771221519E0,4.669366837E0,5.389287243E0
1.510847738E1,-2.055566072E0,1.473988414E0,4.500753880E0,5.162826668E0
1.511851737E1,-1.831134796E0,1.146453381E0,4.448529720E0,4.945384380E0
1.512855738E1,-1.710123897E0,1.221127510E0,4.542952061E0,5.005406034E0
1.513856738E1,-1.302009702E0,9.519866109E-1,4.864464760E0,5.124892698E0
1.514860737E1,-1.501639128E0,2.267019272E0,4.831403255E0,5.544073761E0
1.515864837E1,-1.298193097E0,1.851511717E0,4.721751213E0,5.235297076E0
1.516868838E1,-1.338676929E0,2.490586758E0,4.739934444E0,5.519244229E0
1.517872838E1,-1.100548744E0,2.227922440E0,4.595130444E0,5.223989829E0
1.518876837E1,-1.113610744E0,2.477493525E0,4.302756786E0,5.088400438E0
1.519880937E1,-1.035123587E0,2.316948414E0,4.245041847E0,4.945716437E0
1.520884938E1,-1.098432422E0,2.455020666E0,4.239237785E0,5.020439947E0
1.521888937E1,-9.727315307E-1,2.270295143E0,4.251940250E0,4.917259660E0
1.522893038E1,-9.064167738E-1,2.154103994E0,4.262508392E0,4.861145254E0
1.523897038E1,-6.658755541E-1,1.808959484E0,4.471934319E0,4.869694161E0
1.524901038E1,-6.175906658E-1,2.032630682E0,4.612491608E0,5.078196978E0
1.525905037E1,-2.801426351E-1,1.553630233E0,4.640608788E0,4.901785054E0
1.526909137E1,-2.152482718E-1,1.676542401E0,4.629083633E0,4.928036275E0
1.527914300E1,2.732735127E-2,1.415743947E0,4.467628956E0,4.686660452E0
1.528918300E1,-2.503175735E-1,2.689723969E0,4.267941952E0,5.051000140E0
1.529922400E1,-5.094855279E-2,2.286246061E0,4.367918015E0,4.930337168E0
1.530926400E1,-1.238485426E-1,2.321928740E0,4.371623993E0,4.951543988E0
1.531930400E1,-4.213742539E-2,2.048558950E0,4.428520679E0,4.879566041E0
1.532934400E1,9.671259671E-2,1.824926376E0,4.698769569E0,5.041641109E0
1.533935400E1,1.832253784E-1,1.812768221E0,4.741443157E0,5.079466840E0
1.534939400E1,4.210519791E-1,1.775150657E0,4.710284233E0,5.051259465E0
1.535943500E1,5.662784576E-1,2.386773348E0,4.647853374E0,5.255463757E0
1.536947500E1,7.802428603E-1,2.265927076E0,4.556397915E0,5.148200306E0
1.537951500E1,8.451758027E-1,2.224617243E0,4.680317879E0,5.250582773E0
1.538955600E1,9.786055088E-1,2.109948397E0,4.721980572E0,5.263710811E0
1.539959600E1,9.795381427E-1,2.243732691E0,4.647653103E0,5.253047756E0
1.540963600E1,1.149258256E0,1.921961427E0,4.492206573E0,5.019427274E0
1.541967600E1,1.080201387E0,2.334917307E0,4.519268036E0,5.200236288E0
1.542971700E1,1.254057288E0,2.089142561E0,4.492594242E0,5.110829614E0
1.543975700E1,1.199050784E0,2.344494343E0,4.366010189E0,5.098668598E0
1.544979700E1,1.230768561E0,2.195093155E0,4.241599083E0,4.931976074E0
1.545983800E1,1.158639550E0,2.049460173E0,4.279806137E0,4.884615970E0
1.546987800E1,1.140401244E0,1.902703524E0,4.415187836E0,4.941121262E0
1.547991800E1,1.159859180E0,1.618730426E0,4.422157288E0,4.849849130E0
1.548995800E1,1.107988715E0,1.501899838E0,4.407254696E0,4.786150444E0
1.549999900E1,1.107396960E0,1.312159419E0,4.327862263E0,4.656015693E0
1.551003900E1,1.054335713E0,1.258607626E0,4.347459793E0,4.647162963E0
1.552007900E1,1.127686620E0,1.133587956E0,4.302916050E0,4.590401431E0
1.553012000E1,1.167041540E0,1.132369041E0,4.267055988E0,4.566400378E0
1.554016000E1,1.258255005E0,9.583769441E-1,4.279689312E0,4.562612479E0
1.555017000E1,1.461487532E0,7.849576473E-1,4.253564358E0,4.565623075E0
1.556021000E1,1.618956447E0,7.984460592E-1,4.220232964E0,4.590087401E0
1.557025000E1,1.872726679E0,6.995984316E-1,4.184628487E0,4.637635038E0
1.558029000E1,2.029285431E0,6.522825956E-1,4.158908844E0,4.673328013E0
1.559033100E1,2.126073360E0,6.317082047E-1,4.071537018E0,4.636448736E0
1.560037100E1,2.223778248E0,4.716032147E-1,4.079068184E0,4.669731956E0
1.561041100E1,2.204019308E0,5.607064962E-1,4.010429382E0,4.610383576E0
1.562045200E1,2.181038380E0,5.157192945E-1,3.991635323E0,4.577777556E0
1.563049200E1,2.106958151E0,4.380339384E-1,3.984081268E0,4.528139787E0
1.564053200E1,1.884001017E0,3.828931749E-1,4.107751369E0,4.535381828E0
1.565057200E1,1.842190146E0,2.142404318E-1,4.128953934E0,4.526347764E0
1.566061300E1,1.822908759E0,-3.729456104E-3,4.127123356E0,4.511779854E0
1.567065300E1,1.770474315E0,2.152847126E-2,4.114258766E0,4.479081152E0
1.568069300E1,1.840309620E0,-2.338375151E-1,4.128997326E0,4.526592360E0
1.569073400E1,1.904757977E0,-2.557159662E-1,4.117764473E0,4.544169656E0
1.570077400E1,2.046114683E0,-4.033727944E-1,4.136009693E0,4.632048261E0
1.571081400E1,2.158135653E0,-4.736500680E-1,4.005505562E0,4.574491085E0
1.572085400E1,2.233558416E0,-4.794176817E-1,3.929132223E0,4.544964746E0
1.573089500E1,2.254410982E0,-6.022572517E-1,3.697410345E0,4.372176338E0
1.574093500E1,2.271846771E0,-5.053200722E-1,3.755219221E0,4.417952866E0
1.575094500E1,2.316635847E0,-5.481200814E-1,3.773588657E0,4.461749503E0
1.576098500E1,2.338371277E0,-5.642554164E-1,3.795557499E0,4.493620047E0
1.577102500E1,2.364637613E0,-6.546389461E-1,3.812809229E0,4.534046472E0
1.578106600E1,2.351536751E0,-6.302760839E-1,3.851299047E0,4.556256949E0
1.579110600E1,2.133066654E0,-6.019225121E-1,4.031141281E0,4.600259133E0
1.580114600E1,1.972589970E0,-5.924573541E-1,4.234899521E0,4.709192166E0
1.581118600E1,2.038717031E0,-1.082571030E0,4.233407021E0,4.821831827E0
1.582122700E1,1.979229450E0,-1.389176250E0,4.245120525E0,4.885510019E0
1.583126700E1,1.793635726E0,-1.374893546E0,4.158573151E0,4.732989756E0
1.584130700E1,1.632851601E0,-1.522605181E0,3.959136724E0,4.545249662E0
1.585134800E1,1.541413188E0,-1.508537292E0,3.982706070E0,4.529192756E0
1.586138800E1,1.516300917E0,-1.687499285E0,3.991387367E0,4.591077806E0
1.587142800E1,1.479797006E0,-1.777702928E0,3.996248007E0,4.617361260E0
1.588146800E1,1.436359763E0,-1.803813100E0,3.998509884E0,4.615728801E0
1.589150900E1,1.386946201E0,-1.849131107E0,4.000366211E0,4.620155348E0
1.590154900E1,1.322435856E0,-1.909989715E0,4.015323639E0,4.638935355E0
1.591158900E1,1.293070316E0,-1.983461618E0,4.024709225E0,4.669521943E0
1.592163000E1,1.249854922E0,-1.998042464E0,4.043312550E0,4.680030704E0
1.593167000E1,1.188552380E0,-2.018787146E0,4.077048779E0,4.702178755E0
1.594171000E1,1.152529955E0,-2.032954454E0,4.102890968E0,4.721752155E0
1.595175000E1,1.067335248E0,-2.024712086E0,4.142338753E0,4.732613855E0
1.596176000E1,9.790197611E-1,-2.003315926E0,4.180715561E0,4.738157552E0
1.597180000E1,8.837142587E-1,-1.993053913E0,4.200333595E0,4.732443037E0
1.598184100E1,8.047616482E-1,-1.969462872E0,4.228553295E0,4.733612604E0
1.599188100E1,7.437814474E-1,-1.953617930E0,4.240808487E0,4.728032411E0
1.600192100E1,6.590048075E-1,-1.931123018E0,4.261155128E0,4.724507009E0
1.601196200E1,5.238982439E-1,-1.882384181E0,4.278444767E0,4.703501802E0
1.602200200E1,4.699548185E-1,-1.909271717E0,4.246389389E0,4.679529770E0
1.603204200E1,3.133287132E-1,-2.111684322E0,4.236897945E0,4.744332383E0
1.604208200E1,2.340916842E-1,-2.314342737E0,4.206008434E0,4.806400750E0
1.605212300E1,1.547531933E-1,-2.386742830E0,4.196299076E0,4.830053398E0
1.606216300E1,-5.574332178E-2,-2.419064045E0,4.167572498E0,4.819091066E0
1.607220300E1,-1.397210509E-1,-2.467199802E0,4.139957428E0,4.821394440E0
1.608224400E1,-2.311170101E-1,-2.482398510E0,4.121142864E0,4.816589659E0
1.609228400E1,-3.549124599E-1,-2.396709681E0,4.113196850E0,4.773737369E0
1.610232400E1,-5.168387294E-1,-2.253938437E0,4.211657047E0,4.804728487E0
1.611236400E1,-6.185251474E-1,-2.165792227E0,4.028750420E0,4.615632055E0
1.612240500E1,-7.108617425E-1,-2.100308418E0,4.028811455E0,4.598689118E0
1.613244500E1,-7.519894838E-1,-2.046707869E0,4.050405502E0,4.600031089E0
1.614248500E1,-8.127649426E-1,-1.966362834E0,4.055119038E0,4.579427918E0
1.615252600E1,-8.369153142E-1,-1.898774862E0,4.071720600E0,4.569976134E0
1.616256600E1,-8.675879836E-1,-1.776755691E0,4.084151268E0,4.537605236E0
1.617257600E1,-8.728308678E-1,-1.664610028E0,4.097608566E0,4.508121142E0
1.618261600E1,-8.491476774E-1,-1.576648712E0,4.102199078E0,4.476037334E0
1.619265600E1,-7.632200718E-1,-1.422830939E0,4.136870861E0,4.440794217E0
1.620269600E1,-6.802540421E-1,-1.237513065E0,4.188506603E0,4.420155169E0
1.621273700E1,-6.367422938E-1,-1.085219622E0,4.215676308E0,4.399439636E0
1.622277700E1,-7.748472095E-1,-1.002864838E0,4.232438087E0,4.418105730E0
1.623281700E1,-1.138630152E0,-1.345804214E0,4.177278042E0,4.534018024E0
1.624285800E1,-1.213988066E0,-1.282058597E0,4.169680119E0,4.528098228E0
1.625289800E1,-1.295221090E0,-1.285233140E0,4.145536423E0,4.529337052E0
1.626293800E1,-1.361266494E0,-1.312032819E0,4.116997242E0,4.530357919E0
1.627297800E1,-1.399663806E0,-1.325834274E0,4.089353561E0,4.521029511E0
1.628300125E1,-1.425024867E0,-1.322172642E0,4.089824677E0,4.528300150E0
1.629304125E1,-1.438564658E0,-1.285581231E0,4.110803127E0,4.541022983E0
1.630308125E1,-1.470170736E0,-1.191697121E0,4.127203465E0,4.540413248E0
1.631312225E1,-1.532536983E0,-1.080644846E0,4.128173828E0,4.534124176E0
1.632316225E1,-1.641594768E0,-9.776648879E-1,4.131398678E0,4.551825683E0
1.633320225E1,-1.773747683E0,-9.254190326E-1,4.113368511E0,4.574099008E0
1.634324225E1,-1.884108543E0,-8.643841743E-1,4.097455025E0,4.591967191E0
1.635328325E1,-1.950370312E0,-7.775193453E-1,4.101028919E0,4.607268050E0
1.636332325E1,-1.999107718E0,-7.172164917E-1,4.082678795E0,4.602075326E0
1.637333325E1,-1.949265480E0,-4.765026271E-1,4.132994175E0,4.594380428E0
1.638337325E1,-1.909014463E0,-1.438985765E-1,4.245564938E0,4.657237879E0
1.639341325E1,-2.094594002E0,-2.690429986E-1,4.272227764E0,4.765672905E0
1.640345425E1,-2.137409687E0,-3.098434508E-1,3.979976177E0,4.528215267E0
1.641349425E1,-2.223722458E0,-3.177085519E-1,3.668107033E0,4.301266034E0
1.642353425E1,-2.258345604E0,-2.375643700E-1,3.635044098E0,4.286036315E0
1.643357425E1,-2.124391317E0,-2.886237204E-1,3.757350206E0,4.325970723E0
1.644361525E1,-2.007711172E0,-2.180398405E-1,3.945653200E0,4.432451319E0
1.645365525E1,-1.870707154E0,-1.322114766E-1,4.031382561E0,4.446242288E0
1.646369525E1,-1.711951137E0,-1.252197027E-1,4.073711395E0,4.420586070E0
1.647373625E1,-1.401441455E0,1.573876143E-1,4.220793724E0,4.450158275E0
1.648377625E1,-1.325790405E0,1.688386798E-1,4.392249107E0,4.591086900E0
1.649381625E1,-1.126079321E0,2.934341431E-1,4.422480106E0,4.573017442E0
1.650385625E1,-9.179204106E-1,4.551282525E-1,4.453640461E0,4.569970784E0
1.651389725E1,-6.982853413E-1,3.762782216E-1,4.388623714E0,4.459731587E0
1.652393725E1,-6.001736522E-1,3.323922157E-1,4.426883221E0,4.479730801E0
1.653397725E1,-5.008388758E-1,1.895455122E-1,4.557065964E0,4.588422090E0
1.654401825E1,-4.135631025E-1,2.457493991E-1,4.541199684E0,4.566609440E0
1.655405825E1,-4.145867229E-1,3.582906723E-1,4.633455276E0,4.665743473E0
1.656409825E1,-4.037841558E-1,3.077044487E-1,4.656196117E0,4.683789700E0
1.657413825E1,-3.512319326E-1,2.918813825E-1,4.678706646E0,4.700941873E0
1.658414825E1,-2.904889584E-1,2.486819774E-1,4.692485809E0,4.708040955E0
1.659418925E1,-2.536419332E-1,2.076365203E-1,4.673254967E0,4.684736827E0
1.660422925E1,-2.028874010E-1,1.329447031E-1,4.681099892E0,4.687380269E0
1.661426925E1,-1.792265773E-1,-2.025509067E-2,4.669518471E0,4.673000662E0
1.662430925E1,-2.221660465E-1,3.288802132E-2,4.746217728E0,4.751528395E0
1.663435025E1,-2.932621241E-1,6.589645892E-2,4.745766640E0,4.755275598E0
1.664439025E1,-2.491468638E-1,4.213600233E-2,4.803652763E0,4.810294115E0
1.665443025E1,-2.751693726E-1,2.865945995E-1,4.798754692E0,4.815174062E0
1.666447025E1,-1.277093291E-1,1.978442222E-1,4.816485405E0,4.822238450E0
1.667451125E1,-9.746815264E-2,3.268592358E-1,4.822136879E0,4.834184634E0
1.668455125E1,1.461471152E-2,3.369179964E-1,4.856688976E0,4.868383216E0
1.669459125E1,1.873809397E-1,1.793352664E-1,4.874160767E0,4.881056846E0
1.670463225E1,2.271374166E-1,4.319944084E-1,4.904348850E0,4.928574664E0
1.671467225E1,3.662599921E-1,3.433094025E-1,4.872536659E0,4.898328411E0
1.672471225E1,4.563121200E-1,2.898719907E-1,4.882090092E0,4.911929375E0
1.673475225E1,4.754078388E-1,4.723509550E-1,4.863211632E0,4.909170542E0
1.674479325E1,5.755925179E-1,3.235308528E-1,4.833533287E0,4.878424233E0
1.675483325E1,5.134632587E-1,3.223312795E-1,4.849031925E0,4.886783460E0
1.676487325E1,3.886975944E-1,3.624424934E-1,4.853363037E0,4.882374745E0
1.677491425E1,2.267160714E-1,2.801259458E-1,4.862374783E0,4.875711153E0
1.678492325E1,9.576576203E-2,2.642979920E-1,4.871976376E0,4.880079745E0
